aX,aY,aZ,gX,gY,gZ
1.787,-0.068,1.017,4.578,1.465,-30.884
1.473,-0.071,0.961,6.226,1.953,-42.358
1.197,-0.297,0.988,-1.404,3.174,-41.260
1.217,-0.504,1.020,-6.653,4.211,-39.917
0.970,-0.641,1.053,-2.808,4.639,-39.490
0.691,-0.596,1.018,1.404,3.784,-35.095
0.414,-0.471,1.000,4.333,0.977,-23.437
0.266,-0.433,1.014,0.977,2.869,-3.662
0.106,-0.433,1.010,-1.709,5.005,17.334
0.029,-0.415,1.049,-1.709,6.042,29.724
-0.301,-0.276,1.023,0.183,4.517,28.809
-0.327,-0.058,0.997,0.183,1.221,17.273
-0.468,-0.007,0.983,1.770,-1.099,16.785
-0.587,0.188,0.986,-0.122,-0.610,12.207
-0.632,0.248,1.003,0.732,0.977,4.272
-0.685,0.226,0.986,2.258,2.563,-3.784
-0.753,0.220,0.984,1.465,4.089,-12.817
-0.930,0.294,1.010,-2.075,7.812,-19.897
-0.939,0.290,1.033,-1.465,8.057,-18.555
-0.925,0.285,1.021,1.038,3.418,-10.803
-1.112,0.283,1.022,-0.977,1.526,-0.427
-1.022,0.192,0.999,0.610,-2.380,14.954
-1.049,0.177,0.991,1.648,-5.310,29.419
-0.919,0.120,0.995,1.831,-1.648,41.077
-0.821,0.121,1.001,1.526,-0.488,44.678
-0.702,0.146,1.000,1.526,-0.061,39.001
-0.645,0.124,0.998,1.099,0.183,29.358
-0.560,0.064,1.000,0.732,0.305,20.691
-0.514,-0.007,0.999,0.549,0.305,13.977
-0.484,-0.048,1.000,0.916,0.488,8.423
-0.440,-0.079,1.001,0.793,0.549,4.211
-0.432,-0.094,1.000,0.977,0.732,2.502
-0.485,-0.120,1.000,1.221,0.549,3.174
-0.096,-0.042,1.005,1.221,0.549,2.686
-0.027,-0.026,1.003,1.221,0.854,0.061
-0.025,-0.021,0.997,0.671,0.916,-0.122
-0.024,-0.017,0.999,0.793,0.916,-0.122
-0.026,-0.017,1.001,0.977,0.854,-0.183
-0.027,-0.017,1.003,1.099,0.854,-0.122
-0.026,-0.018,1.006,1.038,0.916,-0.183
-0.025,-0.019,1.001,1.038,0.977,-0.244
-0.024,-0.022,1.000,0.977,0.977,-0.122
-0.024,-0.023,1.002,1.038,0.854,-0.183
-0.023,-0.024,1.002,1.038,0.793,-0.122
-0.020,-0.027,1.001,0.977,0.671,-0.183
-0.020,-0.028,1.000,0.610,0.671,-0.244
-0.019,-0.027,1.001,0.732,0.671,-0.183
-0.018,-0.026,1.004,0.854,0.671,0.000
-0.021,-0.023,1.006,0.793,0.671,-0.244
-0.024,-0.019,1.002,0.977,0.610,-0.122
-0.025,-0.016,1.000,0.793,0.610,-0.244
-0.025,-0.014,1.001,0.671,0.488,-0.122
-0.028,-0.015,1.001,0.793,0.610,-0.061
-0.029,-0.017,1.001,0.793,0.610,-0.061
-0.031,-0.020,1.002,0.854,0.488,0.000
-0.031,-0.022,1.001,1.282,0.916,0.000
-0.030,-0.025,1.001,1.038,0.854,-0.122
-0.029,-0.025,1.003,0.916,0.732,-0.183
-0.028,-0.025,1.001,0.916,0.793,-0.122
-0.027,-0.023,1.000,0.977,0.793,-0.244
-0.025,-0.022,1.001,0.977,0.793,-0.122
-0.023,-0.022,1.001,1.160,0.793,-0.122
-0.023,-0.022,1.002,1.038,0.793,-0.122
-0.022,-0.021,1.004,1.038,0.732,-0.061
-0.022,-0.020,1.001,1.038,0.793,-0.122
-0.021,-0.019,1.001,0.977,0.732,-0.122
-0.023,-0.018,1.001,0.977,0.793,-0.244
-0.023,-0.018,1.001,0.916,0.854,-0.183
-0.025,-0.019,1.001,0.793,0.732,-0.183
-0.027,-0.023,1.001,0.854,0.793,-0.122
-0.028,-0.024,1.001,1.038,0.916,-0.122
-0.028,-0.025,1.002,0.916,0.793,-0.122
-0.029,-0.025,1.002,1.099,0.671,-0.183
-0.028,-0.024,1.004,0.916,0.732,0.000
-0.026,-0.022,1.001,1.038,0.732,-0.183
-0.026,-0.018,1.001,0.793,0.793,-0.122
-0.024,-0.017,1.001,0.732,0.671,-0.061
-0.022,-0.017,1.001,0.793,0.732,-0.061
-0.022,-0.018,1.001,0.854,0.610,-0.122
-0.021,-0.020,1.001,0.916,0.549,-0.061
-0.022,-0.021,1.001,0.916,0.671,-0.244
-0.022,-0.022,1.001,0.671,0.610,-0.183
-0.023,-0.022,1.001,0.732,0.671,-0.122
-0.024,-0.024,1.001,0.793,0.732,-0.061
-0.027,-0.023,1.001,0.732,0.854,-0.183
-0.028,-0.024,1.001,0.916,0.793,-0.183
-0.029,-0.023,1.001,0.977,0.671,-0.183
-0.030,-0.022,1.001,0.854,0.793,-0.183
-0.030,-0.020,1.001,0.854,0.671,-0.183
-0.028,-0.018,1.001,0.854,0.610,-0.061
-0.027,-0.017,1.001,0.916,0.610,-0.061
-0.025,-0.017,1.001,0.916,0.671,-0.244
-0.024,-0.018,1.001,0.977,0.793,-0.244
-0.022,-0.018,1.001,0.793,0.732,-0.183
-0.022,-0.021,1.001,0.793,0.549,-0.183
-0.021,-0.023,1.002,0.854,0.549,-0.122
-0.022,-0.024,1.001,0.854,0.671,-0.122
-0.022,-0.026,1.002,0.854,0.671,-0.183
-0.023,-0.022,1.001,0.854,0.854,-0.183
-0.024,-0.023,1.002,0.916,0.793,-0.122
-0.026,-0.022,1.001,0.854,0.793,-0.183
-0.028,-0.020,1.002,0.916,0.793,-0.427
-0.028,-0.019,1.001,0.977,0.854,-0.183
-0.028,-0.019,1.001,0.916,0.732,-0.122
-0.028,-0.018,1.001,1.099,0.854,-0.122
-0.026,-0.018,1.001,0.916,0.549,0.000
-0.025,-0.020,1.001,0.977,0.671,-0.061
-0.024,-0.020,1.001,0.977,0.732,-0.183
-0.023,-0.021,1.001,1.038,0.732,-0.061
-0.023,-0.023,1.001,0.977,0.916,-0.122
-0.022,-0.023,1.001,1.038,0.854,0.000
-0.022,-0.023,1.001,1.038,0.793,-0.061
-0.023,-0.023,1.001,0.854,0.732,-0.183
-0.024,-0.024,1.001,0.854,0.854,-0.183
-0.025,-0.022,1.002,0.854,0.793,-0.183
-0.026,-0.020,1.001,0.977,0.671,-0.244
-0.027,-0.018,1.001,0.977,0.916,0.000
-0.028,-0.018,1.001,0.916,0.977,-0.061
-0.028,-0.018,1.001,0.916,0.854,-0.061

1.607,-0.133,1.010,2.014,1.282,7.263
1.407,-0.278,0.999,2.258,0.732,5.554
1.181,-0.382,0.996,3.906,0.122,8.789
1.007,-0.594,0.989,4.333,0.061,17.029
0.758,-0.590,1.002,2.991,1.099,25.513
0.551,-0.696,1.006,2.502,3.235,30.640
0.160,-0.475,1.049,1.831,5.371,31.677
-0.047,-0.502,1.013,2.136,4.333,34.973
-0.162,-0.433,1.007,2.075,1.831,36.499
-0.362,-0.312,1.004,1.953,2.869,34.241
-0.493,-0.002,0.998,1.160,3.296,27.649
-0.593,0.011,1.025,0.000,4.333,22.400
-0.689,0.205,1.008,-1.465,3.174,15.442
-0.572,0.172,0.996,-2.319,0.793,16.541
-0.626,0.104,0.996,-1.038,0.366,16.602
-0.633,0.159,0.998,2.441,0.916,10.132
-0.559,0.164,0.998,5.310,0.366,7.324
-0.595,0.094,0.995,5.005,0.610,12.207
-0.634,0.097,0.994,4.578,1.343,17.212
-0.667,0.174,0.989,2.197,2.747,19.531
-0.809,0.203,0.989,-0.305,4.822,22.095
-0.829,0.154,1.023,-2.136,6.409,24.963
-0.759,0.031,1.020,-0.427,4.456,25.024
-0.725,0.021,1.015,-0.244,2.075,18.005
-0.726,0.110,1.009,-0.427,1.648,5.920
-0.636,0.138,1.012,-0.549,0.061,-2.136
-0.568,0.062,0.982,-0.122,-2.991,-4.211
-0.448,0.038,0.993,0.610,-2.441,-6.042
-0.395,-0.005,0.996,0.916,-1.160,-8.057
-0.349,-0.005,0.994,0.854,-0.549,-11.292
-0.336,-0.002,0.999,0.916,0.122,-13.245
-0.331,-0.008,0.999,1.404,0.305,-11.414
-0.289,-0.025,1.005,1.587,0.488,-7.446
-0.292,-0.016,0.998,1.587,0.610,-4.272
-0.270,0.000,0.998,1.587,0.610,-2.747
-0.257,0.002,1.001,1.465,0.549,-0.244
-0.214,-0.012,1.002,1.343,0.549,1.892
-0.180,-0.022,1.001,1.282,0.671,2.747
-0.218,-0.017,1.000,1.221,0.610,2.014
-0.203,-0.019,0.999,1.038,0.427,2.075
-0.206,-0.022,1.000,1.160,0.488,3.113
-0.215,-0.022,1.001,0.854,0.610,3.662
-0.290,-0.027,1.000,0.854,0.488,3.235
-0.059,-0.019,1.002,1.160,0.671,1.099
-0.034,-0.019,1.004,0.671,0.793,-0.122
-0.036,-0.022,1.000,0.488,0.854,-0.183
-0.040,-0.023,1.001,0.549,0.854,-0.122
-0.039,-0.024,1.001,0.732,0.671,-0.061
-0.034,-0.025,1.000,0.977,0.793,-0.061
-0.025,-0.022,1.002,1.099,0.854,-0.061
-0.018,-0.017,1.001,1.099,0.671,0.000
-0.014,-0.015,1.001,1.160,0.732,-0.122
-0.016,-0.015,1.001,1.038,0.671,-0.244
-0.018,-0.014,1.001,0.916,0.671,-0.122
-0.021,-0.015,1.000,0.793,0.732,-0.122
-0.022,-0.022,1.000,1.099,0.793,0.061
-0.026,-0.026,1.002,0.793,0.549,0.000
-0.029,-0.029,1.002,0.732,0.732,-0.122
-0.029,-0.027,1.000,0.732,0.854,-0.244
-0.029,-0.023,1.001,0.732,0.793,-0.305
-0.027,-0.020,1.001,0.732,0.732,-0.244
-0.025,-0.016,1.001,0.854,0.610,-0.122
-0.024,-0.016,1.001,0.732,0.732,-0.122
-0.021,-0.019,1.000,0.732,0.549,-0.061
-0.021,-0.023,1.002,0.854,0.549,-0.183
-0.021,-0.023,1.002,0.916,0.732,-0.122
-0.023,-0.025,1.002,0.916,0.793,-0.244
-0.024,-0.022,0.999,1.038,0.854,-0.122
-0.025,-0.019,1.001,0.977,0.793,-0.305
-0.029,-0.016,1.001,1.038,0.671,-0.366
-0.030,-0.015,1.001,0.916,0.549,-0.305
-0.031,-0.017,1.001,0.977,0.732,-0.183
-0.031,-0.021,1.002,0.793,0.671,-0.122
-0.032,-0.023,1.001,1.038,0.793,0.000
-0.029,-0.025,1.001,0.916,0.610,-0.061
-0.027,-0.025,1.001,1.038,0.610,-0.122
-0.025,-0.022,1.001,0.977,0.610,-0.183
-0.024,-0.019,1.001,0.916,0.793,-0.183
-0.021,-0.019,1.003,0.916,0.549,-0.061
-0.020,-0.018,1.001,1.038,0.732,0.061
-0.021,-0.018,1.000,0.977,0.732,-0.122
-0.020,-0.019,1.000,0.854,0.610,-0.305
-0.021,-0.020,1.000,1.038,0.732,-0.183
-0.024,-0.022,1.001,1.160,0.610,-0.244
-0.026,-0.022,1.002,0.977,0.671,-0.122
-0.029,-0.020,1.001,0.916,0.793,-0.061
-0.030,-0.019,1.001,0.793,0.916,-0.244
-0.029,-0.020,1.001,0.854,0.671,-0.183
-0.029,-0.020,1.001,0.854,0.671,-0.183
-0.029,-0.020,1.001,0.793,0.549,-0.061
-0.026,-0.019,1.002,0.732,0.610,-0.122
-0.024,-0.020,1.001,0.977,0.732,-0.061
-0.023,-0.018,1.000,0.854,0.671,-0.061
-0.022,-0.017,1.001,0.854,0.488,-0.122
-0.022,-0.020,1.001,0.854,0.671,-0.183
-0.022,-0.021,1.001,0.793,0.732,-0.122
-0.024,-0.021,1.001,0.854,0.732,-0.061
-0.027,-0.019,1.001,1.038,0.671,-0.122
-0.030,-0.018,1.001,0.854,0.610,-0.183
-0.031,-0.019,1.001,0.793,0.610,-0.183
-0.031,-0.022,1.001,0.854,0.732,-0.061
-0.029,-0.026,1.001,0.916,0.732,-0.122
-0.027,-0.027,1.001,0.793,0.671,-0.183
-0.024,-0.025,1.001,0.916,0.793,-0.061
-0.023,-0.021,1.000,0.916,0.793,-0.183
-0.021,-0.018,1.003,0.793,0.671,-0.183
-0.021,-0.016,1.001,0.854,0.610,-0.183
-0.019,-0.018,1.000,0.793,0.610,-0.183
-0.018,-0.021,1.003,0.732,0.610,-0.122
-0.019,-0.023,0.999,0.916,0.793,-0.244
-0.019,-0.024,1.004,0.916,0.793,-0.366
-0.023,-0.023,1.001,0.916,0.732,-0.244
-0.026,-0.021,1.001,0.854,0.671,-0.244
-0.030,-0.018,1.001,0.916,0.732,-0.244
-0.031,-0.017,1.001,0.671,0.732,-0.305
-0.033,-0.017,1.001,0.916,0.793,-0.183
-0.034,-0.018,1.001,1.099,0.793,-0.122
-0.033,-0.018,1.001,0.977,0.671,-0.183
-0.031,-0.020,1.002,0.916,0.610,-0.122

0.203,-0.244,0.999,0.916,1.892,-31.311
-0.377,0.237,0.990,1.038,1.953,-65.613
-0.285,0.245,1.000,2.197,1.526,-68.665
-0.201,0.014,1.002,1.831,1.221,-45.593
-0.234,-0.073,1.007,1.587,1.099,-22.522
-0.279,-0.046,1.001,1.526,1.160,-10.071
-0.329,0.063,1.000,1.404,1.221,-6.531
-0.226,0.150,1.000,1.526,1.160,-5.249
-0.058,-0.108,1.014,0.916,1.160,-3.357
-0.240,-0.088,1.074,2.563,0.732,-5.859
-0.150,-0.163,1.095,7.874,-2.197,-17.517
-0.106,-0.100,1.144,-3.296,-4.761,-40.894
-0.156,0.095,1.194,-6.226,-7.507,-59.998
-0.131,0.155,1.249,3.906,-14.282,-55.420
-0.134,0.108,1.239,3.906,-21.851,-34.790
-0.233,0.011,1.136,3.784,-27.893,-13.916
-0.293,0.004,0.969,6.714,-32.532,-2.014
-0.308,0.035,0.841,8.606,-33.142,3.601
-0.291,0.066,0.835,13.367,-28.259,5.676
-0.219,0.102,0.911,19.470,-20.142,4.517
-0.167,0.152,0.977,17.151,-13.977,0.854
-0.179,0.152,0.971,5.554,-9.766,-1.648
-0.227,0.092,0.945,-9.277,-4.395,-1.892
-0.249,0.007,0.948,-20.935,4.395,-1.770
-0.214,-0.028,0.990,-26.245,13.550,-3.479
-0.181,-0.038,1.034,-24.414,19.836,-5.188
-0.186,-0.032,1.047,-19.531,22.705,-5.798
-0.210,-0.060,1.014,-15.076,22.644,-5.371
-0.191,-0.064,1.009,-12.573,21.790,-3.906
-0.159,-0.043,1.020,-12.390,20.325,-0.793
-0.137,-0.040,1.009,-12.878,17.578,3.174
-0.121,-0.029,0.994,-12.268,14.404,5.676
-0.128,-0.016,0.997,-9.216,12.451,5.432
-0.096,0.011,1.019,-4.700,10.437,2.075
-0.095,0.042,1.034,-0.488,8.179,-2.747
-0.114,0.046,1.017,1.526,6.531,-6.409
-0.122,0.023,1.005,0.916,6.531,-9.827
-0.137,0.010,0.991,-1.038,8.850,-13.000
-0.129,-0.015,0.968,-1.953,12.573,-14.282
-0.106,-0.050,0.966,-2.563,16.296,-14.587
-0.099,-0.053,0.965,-1.953,19.043,-13.794
-0.079,-0.041,0.979,-3.662,19.653,-10.376
-0.070,-0.036,0.974,-8.240,17.456,-5.005
-0.071,-0.044,0.978,-11.414,14.465,0.061
-0.050,-0.043,0.990,-10.803,11.597,3.235
-0.037,-0.031,1.002,-8.850,8.545,3.540
-0.041,-0.014,1.001,-5.554,5.432,1.892
-0.042,-0.006,0.991,-2.014,2.869,-0.305
-0.032,-0.000,0.979,0.732,1.831,-2.625
-0.016,0.000,0.972,1.160,2.075,-4.089
-0.010,0.004,0.963,0.671,3.052,-4.639
-0.000,0.003,0.955,-0.671,3.967,-4.883
0.013,-0.020,0.956,-2.747,4.639,-4.700
0.026,-0.053,0.962,-3.235,5.005,-4.883
0.037,-0.061,0.968,-1.465,4.578,-5.493
0.034,-0.057,0.986,0.549,3.540,-4.883
0.029,-0.042,1.003,1.831,2.136,-2.808
0.031,-0.030,1.014,3.113,0.122,-0.610
0.022,-0.028,0.994,4.700,-1.526,0.427
-0.004,-0.034,0.962,5.310,-1.465,0.977
-0.013,-0.010,0.953,2.747,0.732,1.587
0.004,-0.005,0.953,-0.854,3.479,3.357
0.018,-0.003,0.949,-3.906,5.615,5.676
0.033,0.007,0.959,-5.371,5.920,6.653
0.046,0.022,0.970,-4.822,4.395,6.104
0.048,0.033,0.973,-2.991,1.343,4.150
0.028,0.032,0.978,-1.160,-2.258,1.404
0.023,0.029,0.988,0.732,-5.005,-1.648
0.013,0.031,0.988,1.831,-6.592,-4.272
0.001,0.015,0.975,0.793,-7.202,-5.188
-0.003,0.004,0.985,-2.747,-6.470,-4.761
0.009,-0.011,0.990,-5.615,-5.127,-3.357
0.023,-0.035,1.002,-6.348,-3.784,-1.709
0.025,-0.059,0.998,-5.310,-2.502,-0.061
0.027,-0.031,0.998,-2.869,-0.610,1.404
0.011,0.016,0.978,-0.061,1.770,2.991
-0.001,0.035,0.978,1.404,3.601,5.859
-0.004,0.073,0.989,-0.061,4.517,7.507
0.003,0.072,0.998,-2.380,4.272,8.362
-0.003,0.077,0.986,-3.662,3.418,7.568
-0.007,0.076,0.982,-3.784,2.380,5.127
0.004,0.078,0.993,-2.625,1.892,2.136
0.008,0.091,0.994,-1.282,1.160,-0.488
0.007,0.097,0.991,-0.488,0.854,-1.953
0.000,0.087,0.980,-0.549,0.977,-2.441
0.004,0.077,0.978,0.061,1.770,-3.357
0.009,0.055,0.979,1.587,2.625,-4.639
0.006,0.036,0.985,3.723,3.113,-6.165
0.013,0.036,0.992,3.967,3.235,-6.775
0.013,0.041,0.993,2.197,2.563,-5.676
0.009,0.026,0.981,0.610,1.526,-3.235
0.009,0.023,0.973,0.671,0.671,-1.221
0.003,0.032,0.971,0.916,-0.305,-1.099
0.001,0.051,0.971,0.610,-1.709,-1.587
0.000,0.067,0.978,-1.038,-3.601,-1.953
0.010,0.077,0.992,-3.296,-5.432,-1.587
0.006,0.071,1.003,-5.981,-7.324,-1.282
0.003,0.059,1.001,-6.348,-9.033,-1.770
0.000,0.055,0.998,-4.944,-9.583,-2.869
-0.007,0.054,1.000,-3.357,-9.460,-3.723
-0.003,0.045,1.010,-1.953,-9.033,-3.784
0.022,0.039,1.025,0.427,-8.850,-4.395
0.011,0.039,1.005,3.540,-9.338,-7.019
0.001,0.042,0.998,3.784,-8.789,-7.690
-0.000,0.027,0.994,0.427,-7.874,-6.165
0.009,0.014,0.987,-3.784,-6.409,-3.662
-0.001,0.010,0.970,-7.202,-5.188,-1.404
0.004,0.010,0.964,-8.118,-4.333,0.000
0.019,0.001,0.978,-7.202,-4.700,-0.305
0.024,-0.004,0.992,-5.188,-6.775,-1.648
0.021,0.014,0.997,-3.723,-10.254,-2.686
0.023,0.021,1.001,-2.563,-13.000,-2.319
0.027,-0.003,1.002,-0.793,-15.076,-1.709
0.038,-0.010,1.019,0.671,-15.869,-1.953
0.036,-0.009,1.021,2.686,-16.113,-3.235
0.034,-0.009,1.011,4.089,-15.991,-4.333
0.036,0.029,1.032,4.089,-14.954,-4.333
0.078,0.025,1.221,7.080,-14.709,-3.479
0.035,0.028,0.965,16.113,-21.667,-3.723

1.624,0.237,1.001,1.404,0.732,20.447
1.773,0.146,1.006,1.770,0.488,25.146
1.745,0.024,1.031,1.526,0.732,23.560
1.609,-0.119,1.006,0.610,1.953,14.832
1.475,-0.238,0.993,3.235,1.282,7.507
1.169,-0.216,0.959,6.592,0.427,4.883
1.093,-0.363,0.981,4.883,0.854,9.949
0.907,-0.391,1.009,1.892,3.296,18.982
0.348,-0.450,1.086,0.916,5.798,24.902
0.314,-0.432,1.003,2.502,2.991,27.771
0.100,-0.407,1.051,2.563,1.526,31.372
0.138,-0.508,0.994,1.099,3.906,33.081
-0.254,-0.519,1.056,0.183,6.714,25.269
-0.443,-0.256,1.006,0.000,4.150,10.254
-0.589,-0.261,0.993,0.732,-0.549,7.690
-0.720,-0.217,0.978,1.404,-1.526,14.160
-0.648,-0.221,0.999,3.113,0.488,19.531
-0.955,-0.149,0.992,4.028,3.235,21.729
-1.182,-0.097,0.998,0.732,7.812,26.917
-1.303,-0.152,1.049,-0.671,9.155,39.124
-1.288,-0.027,1.051,-0.122,2.747,52.673
-1.569,0.178,0.991,0.061,-2.258,62.927
-1.288,0.184,0.981,2.991,-6.836,69.702
-1.199,0.169,0.986,1.892,-2.563,61.096
-1.169,0.311,0.994,-0.122,-0.732,35.034
-1.114,0.253,0.997,-0.061,0.000,9.155
-1.020,0.142,0.995,0.183,0.488,-8.362
-0.896,0.066,0.999,0.549,0.732,-19.043
-0.838,0.025,1.000,0.793,1.038,-23.315
-0.718,-0.001,1.001,0.610,1.099,-23.010
-0.603,-0.043,1.000,0.732,1.160,-20.020
-0.475,-0.057,0.998,0.793,1.160,-18.066
-0.435,-0.047,1.000,0.854,1.099,-17.578
-0.409,-0.036,1.003,1.160,0.854,-15.930
-0.424,0.003,1.001,1.404,0.854,-10.315
-0.127,-0.013,1.003,1.404,0.732,-3.540
-0.032,-0.022,1.002,0.916,0.793,-0.366
-0.028,-0.021,1.000,0.671,1.038,-0.244
-0.027,-0.018,1.001,0.732,0.977,-0.183
-0.028,-0.019,1.001,0.854,0.793,0.000
-0.026,-0.019,1.000,1.160,0.732,-0.122
-0.026,-0.020,1.001,0.916,0.671,-0.244
-0.024,-0.020,1.000,0.977,0.671,-0.122
-0.023,-0.021,1.001,1.038,0.732,-0.122
-0.023,-0.021,1.002,0.977,0.793,-0.366
-0.022,-0.022,1.002,0.793,0.732,-0.183
-0.022,-0.023,1.001,0.854,0.793,-0.061
-0.023,-0.023,1.000,1.099,0.793,-0.183
-0.023,-0.023,1.001,0.977,0.732,-0.122
-0.023,-0.023,1.001,0.916,0.671,-0.061
-0.023,-0.022,1.001,0.977,0.732,-0.183
-0.024,-0.021,1.001,0.916,0.549,-0.244
-0.025,-0.020,1.001,1.038,0.854,-0.183
-0.026,-0.019,1.000,1.160,0.671,-0.305
-0.028,-0.017,1.001,1.038,0.671,-0.244
-0.028,-0.019,1.001,1.038,0.732,-0.122
-0.030,-0.019,1.001,1.038,0.732,0.061
-0.031,-0.021,1.001,0.916,0.732,-0.122
-0.032,-0.021,1.000,0.916,0.854,-0.122
-0.032,-0.022,1.001,1.160,1.038,-0.061
-0.030,-0.022,1.001,1.038,0.854,-0.061
-0.030,-0.022,1.001,0.977,0.854,-0.122
-0.027,-0.020,1.001,0.977,0.732,-0.061
-0.025,-0.021,1.001,0.916,0.854,-0.061
-0.022,-0.021,1.001,1.038,0.671,0.061
-0.020,-0.021,1.001,1.099,0.610,0.000
-0.019,-0.021,1.001,1.038,0.793,-0.061
-0.019,-0.021,1.000,1.099,0.854,-0.122
-0.019,-0.021,1.001,1.160,0.916,-0.122
-0.021,-0.021,1.001,0.916,0.854,-0.061
-0.021,-0.022,1.001,0.977,0.854,-0.061
-0.025,-0.022,1.002,1.038,0.793,-0.183
-0.026,-0.022,1.001,0.977,0.793,-0.183
-0.028,-0.023,1.001,0.977,0.671,-0.183
-0.029,-0.022,1.001,0.977,0.671,0.000
-0.029,-0.024,1.001,0.977,0.732,-0.122
-0.029,-0.023,1.001,0.977,0.854,-0.183
-0.029,-0.021,1.001,1.099,0.793,-0.122
-0.028,-0.020,1.001,1.099,0.854,-0.183
-0.027,-0.020,1.001,1.099,0.793,0.061
-0.025,-0.019,1.001,1.038,0.854,-0.061
-0.025,-0.020,1.001,0.977,0.732,-0.244
-0.024,-0.021,1.001,0.977,0.732,0.061
-0.023,-0.022,1.001,1.099,0.977,-0.061
-0.022,-0.022,1.001,0.854,0.793,0.000
-0.023,-0.023,1.001,0.854,0.793,0.061
-0.023,-0.022,1.001,0.854,0.916,0.000
-0.023,-0.023,1.001,0.916,1.038,-0.122
-0.024,-0.023,1.000,1.038,0.916,-0.183
-0.023,-0.022,1.001,0.977,0.916,-0.183
-0.025,-0.022,1.001,0.916,0.854,-0.183
-0.026,-0.022,1.002,0.916,0.916,-0.183
-0.026,-0.021,1.001,0.916,0.977,-0.183
-0.026,-0.021,1.001,0.977,0.977,-0.183
-0.026,-0.021,1.001,0.977,0.854,-0.183
-0.026,-0.020,1.001,1.282,0.977,0.000
-0.025,-0.020,1.001,0.977,1.038,0.000
-0.025,-0.021,1.001,0.977,0.916,-0.122
-0.023,-0.022,1.001,0.916,0.793,-0.061
-0.022,-0.023,1.001,0.793,0.793,0.000
-0.022,-0.023,1.001,0.854,0.549,-0.061
-0.022,-0.023,1.001,1.099,0.854,-0.061
-0.021,-0.023,1.001,1.099,0.793,0.061
-0.023,-0.023,1.001,0.977,0.793,-0.183
-0.025,-0.023,1.001,0.854,0.793,-0.061
-0.026,-0.021,1.001,1.099,0.732,-0.183
-0.026,-0.022,1.001,1.099,0.732,-0.244
-0.026,-0.021,1.001,1.160,0.916,-0.122
-0.027,-0.021,1.001,1.038,0.854,-0.061
-0.027,-0.022,1.001,1.282,0.854,-0.305
-0.027,-0.018,1.001,0.854,0.854,-0.366
-0.026,-0.022,1.002,0.977,0.793,-0.183
-0.024,-0.016,1.002,0.977,0.977,-0.183
-0.026,-0.022,1.001,1.099,0.977,0.061
-0.023,-0.021,1.001,0.854,0.793,0.000
-0.021,-0.022,1.001,0.732,0.854,-0.122
-0.021,-0.024,1.001,0.793,0.916,-0.061
-0.022,-0.024,1.001,0.671,0.977,-0.244
-0.023,-0.024,1.003,0.305,1.038,-0.183

1.053,-0.637,1.008,0.305,2.136,-18.494
-0.444,0.198,0.988,-0.916,2.563,-72.510
-0.332,0.331,0.992,2.258,1.648,-91.248
0.051,0.043,1.004,2.441,1.099,-65.979
-0.136,-0.038,1.006,1.770,1.343,-36.743
-0.235,0.001,1.007,1.343,1.221,-20.935
-0.296,0.078,0.998,1.343,1.038,-13.000
-0.403,0.109,0.996,0.610,1.221,-6.775
-0.497,0.159,1.001,0.732,0.793,-1.587
-0.176,0.028,1.010,1.526,0.549,0.305
-0.028,-0.016,1.001,1.038,0.977,0.000
-0.023,-0.020,0.998,0.488,1.099,-0.183
-0.030,-0.019,1.001,0.305,0.916,-0.122
-0.034,-0.019,1.002,0.610,0.854,-0.061
-0.037,-0.020,1.002,0.793,0.916,-0.122
-0.037,-0.020,1.000,0.916,0.916,-0.122
-0.037,-0.022,0.997,1.099,0.977,-0.122
-0.033,-0.021,1.001,0.916,0.793,0.000
-0.030,-0.021,1.007,0.732,0.793,-0.122
-0.028,-0.021,1.005,0.793,0.916,-0.244
-0.025,-0.021,1.001,0.366,0.916,-0.122
-0.022,-0.021,1.000,0.122,1.038,0.061
-0.022,-0.020,1.001,0.305,1.343,-0.061
-0.055,-0.045,1.004,0.061,1.160,-0.183
-0.032,-0.019,1.000,0.183,1.282,-1.587
-0.115,-0.054,1.002,1.099,1.099,-3.601
-0.351,-0.026,0.998,1.343,1.038,-6.287
0.008,0.005,1.004,2.441,0.854,-11.841
-0.046,-0.010,1.001,1.648,1.221,-13.123
-0.213,-0.057,0.998,-0.549,0.977,-13.062
-0.037,-0.015,1.004,0.366,1.038,-11.963
-0.088,-0.032,1.002,0.793,1.038,-7.874
-0.110,-0.026,1.002,-0.061,0.977,-5.005
-0.090,-0.017,1.008,-0.854,0.977,-3.357
-0.105,-0.030,1.004,-1.343,0.977,-1.770
-0.100,-0.048,1.003,-2.014,0.916,-0.488
-0.103,-0.027,1.011,-1.892,0.610,0.488
-0.094,0.009,1.034,-1.953,0.183,2.014
-0.102,0.041,1.059,-3.235,-0.977,3.723
-0.117,0.048,1.045,-6.531,-2.380,5.310
-0.127,0.045,1.046,-10.925,-3.418,6.287
-0.140,0.029,1.033,-13.855,-4.822,6.287
-0.149,0.000,1.015,-13.306,-5.981,5.371
-0.134,0.014,1.020,-11.230,-6.897,3.784
-0.110,-0.005,1.015,-9.155,-7.507,3.357
-0.098,0.003,1.042,-9.827,-6.836,3.540
-0.099,0.030,1.045,-13.916,-6.226,4.578
-0.081,0.010,1.045,-17.090,-6.775,6.897
-0.067,-0.024,1.030,-18.921,-7.263,7.996
-0.064,-0.042,1.019,-17.700,-6.592,6.592
-0.067,-0.072,1.014,-13.123,-4.395,3.540
-0.075,-0.081,1.011,-6.042,-0.427,-0.244
-0.083,-0.032,1.026,1.770,4.883,-2.869
-0.056,0.017,1.054,6.836,9.338,-2.136
-0.014,0.041,1.063,8.911,11.902,0.977
-0.004,0.056,1.040,7.568,13.062,3.113
-0.024,0.057,1.018,5.005,14.587,2.808
-0.032,0.037,0.997,2.869,16.968,0.854
-0.010,-0.002,1.000,1.282,19.348,-1.343
-0.001,-0.012,1.001,0.549,20.142,-2.686
0.003,-0.016,0.999,0.732,18.555,-2.563
0.024,-0.014,1.004,2.014,15.503,-1.526
0.034,0.007,1.010,3.296,11.536,-0.671
0.020,0.015,0.998,3.174,7.385,0.122
0.037,-0.005,0.994,2.136,5.127,1.160
0.049,-0.019,1.000,-0.183,4.395,2.441
0.041,-0.028,1.007,-1.221,4.761,3.845
0.057,-0.021,1.028,1.099,5.188,3.906
0.075,0.006,1.051,5.554,5.310,2.441
0.067,0.039,1.051,9.155,4.822,0.793
0.028,0.061,1.033,9.644,5.005,-0.305
-0.002,0.059,1.026,7.141,5.859,-1.038
-0.011,0.048,1.036,3.540,7.385,-1.343
-0.009,0.049,1.066,0.427,7.446,-2.014
-0.020,0.043,1.074,-1.099,5.554,-2.625
-0.051,0.037,1.062,-1.221,2.991,-3.418
-0.053,0.026,1.059,0.122,1.038,-4.150
-0.052,0.027,1.056,1.343,-0.549,-4.517
-0.058,0.025,1.043,1.404,-1.831,-4.272
-0.068,0.007,1.023,1.343,-2.380,-3.540
-0.097,0.011,1.003,2.075,-2.014,-3.540
-0.113,0.047,1.001,3.174,-1.099,-4.150
-0.109,0.064,1.018,3.662,-0.488,-4.150
-0.101,0.048,1.014,2.991,-1.526,-4.639
-0.127,0.055,0.992,1.648,-2.563,-5.798
-0.146,0.062,0.950,0.549,-2.014,-7.019
-0.153,0.028,0.922,-1.221,0.000,-6.714
-0.144,0.027,0.905,-4.517,2.747,-6.470
-0.134,0.047,0.895,-6.653,4.639,-6.409
-0.116,0.023,0.905,-6.165,4.517,-5.493
-0.112,0.018,0.898,-4.883,1.892,-5.554
-0.120,0.017,0.889,-2.686,-0.732,-5.615
-0.116,0.016,0.880,-0.916,-2.563,-5.249
-0.104,-0.006,0.870,-0.244,-3.296,-4.700
-0.099,-0.016,0.858,-0.061,-2.930,-4.333
-0.102,-0.010,0.838,1.038,-1.343,-4.639
-0.097,-0.002,0.829,2.930,0.854,-5.249
-0.092,0.004,0.831,3.845,2.808,-5.798
-0.097,0.024,0.841,2.747,2.930,-6.653
-0.102,0.015,0.848,0.244,1.587,-6.836
-0.092,0.010,0.856,-2.197,-1.465,-6.775
-0.087,0.009,0.859,-4.272,-5.188,-6.470
-0.073,-0.005,0.870,-5.798,-8.606,-5.432
-0.065,-0.001,0.896,-7.385,-11.780,-5.005
-0.051,-0.010,0.928,-7.263,-14.648,-5.310
-0.050,0.001,0.961,-6.165,-16.541,-6.470
-0.060,0.012,0.964,-5.920,-17.090,-7.141
-0.056,-0.004,0.970,-7.446,-15.381,-6.714
-0.054,0.000,0.969,-8.911,-11.719,-6.104
-0.042,-0.008,0.948,-8.667,-6.958,-5.371
-0.029,-0.029,0.951,-7.935,-1.526,-3.967
-0.026,-0.022,0.949,-7.263,3.418,-2.869
-0.009,-0.021,0.958,-5.737,5.615,-1.465
-0.010,-0.000,0.989,-2.258,5.188,0.061
0.007,-0.004,1.013,2.258,1.404,0.488
0.027,0.042,1.059,6.470,-4.395,-0.610
0.030,0.030,1.053,9.094,-10.437,-1.526
0.022,-0.002,1.065,8.118,-14.893,-1.038
0.014,-0.002,1.088,4.639,-16.296,0.061

1.379,0.133,1.014,1.099,1.465,-32.471
1.552,0.021,0.995,0.854,1.282,-29.663
1.437,-0.175,1.004,0.854,1.648,-21.790
1.177,-0.341,0.995,3.418,1.099,-13.489
1.054,-0.363,0.990,3.967,0.793,-6.470
0.897,-0.223,0.992,1.282,1.831,6.409
0.684,-0.413,0.999,3.235,2.991,27.893
0.479,-0.487,1.076,3.113,4.639,45.044
0.402,-0.489,1.003,3.906,2.747,46.448
0.307,-0.334,1.001,3.357,1.770,37.720
0.145,-0.213,1.001,0.977,3.540,26.062
0.192,-0.138,1.033,-2.014,5.127,11.475
-0.239,0.010,1.033,-0.610,4.639,-3.296
-0.233,0.026,0.998,-1.343,1.648,-16.113
-0.387,-0.047,0.997,-1.404,0.793,-19.531
-0.626,-0.141,0.991,2.930,1.038,-20.203
-0.585,-0.099,1.004,4.761,1.648,-16.663
-0.747,-0.087,0.993,3.906,3.174,-8.240
-0.934,-0.049,1.002,1.831,4.883,4.883
-0.881,0.033,1.030,0.000,7.080,21.545
-0.731,-0.064,1.049,0.305,4.272,42.358
-1.018,-0.037,1.023,-0.488,-1.343,54.810
-0.927,-0.142,0.977,1.465,-5.432,57.312
-0.939,-0.094,0.988,1.587,-2.808,50.903
-1.017,0.039,0.995,0.977,0.122,36.499
-1.075,0.178,0.997,1.648,0.793,22.400
-0.911,0.159,0.999,1.160,0.671,13.489
-0.862,0.122,0.997,-0.061,0.916,3.967
-0.845,0.141,0.994,0.000,1.099,-6.592
-0.729,0.122,1.001,0.671,1.160,-9.338
-0.542,0.018,1.000,0.427,1.038,-3.967
-0.436,-0.034,1.001,0.305,1.099,1.770
-0.401,0.009,1.000,0.610,1.465,2.625
-0.301,0.005,0.999,1.160,1.099,1.465
-0.319,0.073,1.000,1.404,0.854,1.160
-0.361,0.002,1.000,1.709,0.854,3.357
-0.514,0.074,1.004,1.953,0.793,2.808
-0.277,0.083,1.002,2.808,0.427,-2.441
-0.214,0.041,1.005,2.441,0.488,-2.441
-0.280,0.065,1.001,1.160,0.732,-1.465
-0.042,-0.015,1.005,0.732,0.793,-0.488
-0.032,-0.015,1.001,0.244,1.038,-0.061
-0.034,-0.016,0.997,0.305,0.793,0.000
-0.036,-0.019,1.001,0.732,0.793,-0.244
-0.036,-0.022,1.001,0.977,0.793,-0.061
-0.033,-0.027,1.002,1.160,0.916,0.000
-0.030,-0.027,1.001,1.099,0.732,-0.122
-0.026,-0.026,1.001,1.099,0.671,-0.183
-0.022,-0.024,1.001,1.160,0.610,-0.183
-0.019,-0.020,1.001,1.160,0.732,-0.061
-0.018,-0.017,1.001,1.282,0.977,-0.122
-0.015,-0.017,1.000,1.221,0.793,-0.122
-0.016,-0.019,1.001,0.977,0.732,0.061
-0.017,-0.020,1.004,0.854,0.793,-0.122
-0.021,-0.022,1.001,1.160,0.793,-0.122
-0.023,-0.023,1.001,1.282,0.732,-0.305
-0.027,-0.023,1.000,1.343,0.732,-0.183
-0.030,-0.023,1.000,1.099,0.671,-0.122
-0.033,-0.020,1.001,0.977,0.549,-0.122
-0.033,-0.021,1.002,0.916,0.732,-0.183
-0.034,-0.022,1.002,0.916,0.671,0.000
-0.032,-0.022,1.001,1.099,0.488,-0.122
-0.031,-0.024,1.001,1.038,0.549,-0.122
-0.027,-0.023,1.000,1.038,0.427,0.000
-0.025,-0.022,1.000,0.854,0.549,-0.122
-0.022,-0.020,1.001,0.977,0.732,-0.305
-0.020,-0.018,1.001,0.977,0.732,-0.244
-0.018,-0.018,1.002,0.793,0.488,-0.244
-0.019,-0.020,1.001,0.977,0.671,-0.183
-0.019,-0.021,1.000,1.038,0.854,-0.305
-0.021,-0.024,1.001,0.610,0.671,-0.244
-0.023,-0.025,1.001,0.732,0.671,-0.122
-0.024,-0.025,1.001,0.793,0.671,-0.305
-0.028,-0.024,1.002,0.854,0.671,-0.183
-0.030,-0.022,1.001,1.038,0.732,-0.183
-0.031,-0.020,1.001,1.038,0.916,-0.122
-0.027,-0.020,0.999,0.854,0.854,-0.183
-0.027,-0.019,1.002,0.854,0.793,-0.305
-0.031,-0.016,1.002,0.793,0.549,-0.244
-0.020,-0.013,0.968,1.099,0.671,-0.122
-0.022,-0.018,1.032,0.916,0.916,0.000
-0.030,-0.019,1.001,0.916,0.549,-0.183
-0.024,-0.024,0.991,0.916,0.671,0.000
-0.027,-0.012,1.007,0.793,0.732,-0.061
-0.026,-0.027,0.985,0.793,0.549,0.061
-0.025,-0.036,1.013,0.977,0.732,0.000
-0.028,-0.034,1.007,1.099,0.671,-0.122
-0.027,-0.032,1.004,1.099,0.671,-0.183
-0.024,-0.029,0.990,1.038,0.916,-0.061
-0.024,-0.024,1.006,0.854,0.732,-0.061
-0.021,-0.017,1.012,0.916,0.610,-0.122
-0.017,-0.018,0.995,1.038,0.854,-0.244
-0.014,-0.015,0.985,0.977,0.916,-0.183
-0.014,-0.012,1.018,1.038,0.854,-0.061
-0.016,-0.018,1.000,0.977,0.610,-0.244
-0.026,-0.009,1.011,0.916,0.732,-0.305
-0.031,-0.012,1.010,0.671,0.732,-0.122
-0.035,-0.016,0.979,0.671,0.916,-0.244
-0.035,-0.024,1.005,0.977,1.038,-0.122
-0.036,-0.028,1.004,1.160,1.099,0.000
-0.034,-0.035,1.001,1.038,0.854,-0.061
-0.031,-0.031,1.004,0.854,0.732,-0.183
-0.028,-0.028,0.998,1.099,0.671,0.061
-0.023,-0.023,1.001,0.916,0.610,0.061
-0.020,-0.018,1.004,0.793,0.549,-0.061
-0.016,-0.015,1.001,0.977,0.793,0.000
-0.015,-0.014,1.000,0.854,0.732,0.000
-0.014,-0.016,0.999,0.732,0.671,-0.061
-0.017,-0.017,1.005,0.854,0.610,-0.244
-0.020,-0.020,1.003,0.793,0.610,-0.244
-0.025,-0.022,1.001,0.793,0.793,-0.183
-0.030,-0.020,1.000,1.099,0.977,-0.305
-0.034,-0.021,0.999,0.916,0.732,-0.183
-0.035,-0.020,1.003,0.916,0.549,-0.183
-0.034,-0.025,1.007,0.854,0.671,-0.061
-0.030,-0.028,1.002,1.038,0.610,0.000
-0.027,-0.030,1.001,0.854,0.732,-0.061
-0.024,-0.031,1.001,1.160,0.854,0.000
-0.020,-0.027,1.000,0.916,0.793,-0.122

0.320,-0.158,1.104,28.259,10.986,4.517
0.354,-0.057,1.011,5.005,0.916,6.042
0.274,-0.017,1.004,1.404,0.610,8.301
0.218,-0.024,1.002,0.916,0.793,11.658
0.382,-0.037,1.001,1.526,0.488,11.292
0.592,0.015,1.003,1.404,0.610,6.226
0.676,0.136,1.001,1.038,0.854,-1.831
0.775,0.253,1.003,0.671,0.916,-10.376
0.953,0.311,1.000,0.977,0.916,-17.761
1.116,0.410,1.002,0.793,0.977,-23.804
1.274,0.231,1.018,0.549,1.221,-22.339
1.274,0.239,1.024,0.061,0.854,-29.968
1.388,0.260,0.995,0.488,0.732,-43.701
1.418,0.161,1.001,1.282,1.709,-44.556
1.315,-0.007,0.987,4.639,1.465,-42.725
1.206,-0.062,0.989,3.906,1.892,-43.213
1.181,-0.027,1.001,0.610,3.662,-42.419
0.829,-0.269,0.998,3.845,4.150,-33.325
0.429,-0.419,1.054,0.427,5.005,-23.254
0.312,-0.534,1.004,1.831,2.441,-11.292
0.098,-0.614,1.001,1.587,3.052,7.690
-0.029,-0.610,1.009,0.977,3.479,30.273
-0.295,-0.672,1.045,0.305,5.005,46.509
-0.499,-0.429,0.999,-0.549,2.563,46.021
-0.557,-0.308,0.994,-1.404,-0.183,45.898
-0.737,-0.235,0.992,3.174,0.061,46.326
-0.723,-0.053,0.999,5.127,0.732,38.330
-0.773,0.044,0.982,4.517,2.563,27.527
-0.924,0.078,0.980,1.099,4.700,18.433
-0.783,0.116,1.062,-2.319,8.850,11.536
-0.832,-0.052,1.034,0.000,5.188,10.498
-1.059,0.000,1.055,-0.427,0.549,8.789
-1.023,0.068,0.975,1.099,-6.165,10.803
-1.058,0.059,0.983,0.916,-2.563,22.644
-1.008,0.014,0.994,1.831,-0.488,35.156
-0.991,-0.020,0.995,1.648,-0.305,39.734
-0.885,-0.048,0.994,1.404,-0.244,36.560
-0.849,-0.030,0.998,0.793,0.183,28.381
-0.819,0.038,0.999,0.977,0.549,17.578
-0.744,0.040,1.000,1.160,0.610,9.033
-0.619,0.033,1.000,1.282,0.793,2.991
-0.562,0.038,0.999,0.977,1.099,-2.502
-0.490,0.053,1.000,1.282,1.343,-5.981
-0.412,0.045,1.001,1.221,1.404,-6.470
-0.454,0.002,0.995,1.099,1.099,-5.310
-0.502,0.068,0.999,0.793,1.282,-5.310
-0.206,0.025,1.000,1.160,0.732,-3.357
-0.285,0.009,1.003,1.587,0.671,-1.099
-0.256,0.007,1.007,1.343,0.793,-0.916
-0.160,-0.005,1.002,1.404,0.732,-0.305
-0.109,-0.013,0.997,0.977,0.732,-0.122
-0.043,-0.017,1.002,0.916,0.610,-0.061
-0.034,-0.026,1.000,0.793,0.610,0.000
-0.019,-0.035,1.003,0.488,0.916,0.183
-0.014,-0.037,1.000,0.183,0.977,-0.061
-0.006,-0.036,1.001,0.610,0.854,-0.427
-0.005,-0.029,1.000,0.610,0.916,0.000
-0.006,-0.018,1.005,0.488,0.854,-0.061
-0.010,-0.010,1.001,0.671,0.610,-0.244
-0.013,-0.006,1.000,0.610,0.854,-0.366
-0.018,-0.007,1.001,0.671,0.977,-0.183
-0.024,-0.012,1.003,0.854,0.977,0.000
-0.027,-0.018,1.002,0.916,0.732,0.000
-0.032,-0.022,1.003,0.854,0.610,-0.183
-0.035,-0.023,1.000,0.977,0.610,-0.366
-0.037,-0.025,0.998,1.038,0.610,-0.366
-0.037,-0.023,1.001,0.916,0.610,-0.122
-0.037,-0.019,1.005,1.221,0.793,0.000
-0.035,-0.019,1.003,1.099,0.854,0.000
-0.033,-0.021,1.001,0.916,0.671,-0.183
-0.029,-0.021,1.001,1.099,0.854,-0.122
-0.028,-0.022,1.001,0.977,0.732,0.000
-0.026,-0.024,1.000,0.977,0.793,0.000
-0.024,-0.021,1.001,1.099,0.854,0.122
-0.023,-0.018,1.001,1.160,0.793,-0.122
-0.022,-0.016,1.000,1.038,0.916,-0.122
-0.020,-0.014,1.002,0.916,0.977,-0.122
-0.019,-0.015,1.001,0.916,0.793,-0.122
-0.017,-0.019,1.000,0.732,0.610,-0.183
-0.017,-0.021,1.001,0.793,0.854,-0.061
-0.017,-0.025,1.001,0.977,0.732,-0.183
-0.017,-0.027,1.001,1.038,0.610,-0.122
-0.017,-0.027,1.001,0.916,0.610,-0.122
-0.019,-0.026,1.001,1.099,0.671,-0.061
-0.022,-0.022,1.001,0.977,0.732,-0.122
-0.025,-0.019,1.001,1.160,0.916,-0.122
-0.027,-0.015,1.001,0.916,0.793,-0.122
-0.029,-0.015,1.001,0.916,0.549,-0.305
-0.029,-0.015,1.001,1.282,0.732,-0.183
-0.029,-0.016,1.002,1.221,0.732,-0.183
-0.027,-0.018,1.002,1.282,0.732,-0.183
-0.026,-0.019,1.001,1.282,0.854,-0.183
-0.025,-0.021,1.001,1.282,0.610,-0.061
-0.024,-0.022,1.001,1.038,0.854,-0.122
-0.024,-0.021,1.001,1.099,0.793,-0.183
-0.023,-0.021,1.001,1.099,0.854,-0.183
-0.022,-0.022,1.002,1.160,0.793,-0.122
-0.021,-0.022,1.001,1.282,0.793,-0.122
-0.022,-0.023,1.001,1.099,0.732,0.000
-0.022,-0.022,1.001,1.221,0.916,0.000
-0.024,-0.021,1.001,1.099,0.732,-0.122
-0.025,-0.018,1.002,1.038,0.793,-0.183
-0.027,-0.018,1.003,0.916,0.549,-0.183
-0.028,-0.016,1.001,1.099,0.854,-0.122
-0.026,-0.017,1.001,1.160,0.732,-0.183
-0.027,-0.019,1.001,1.038,0.793,-0.183
-0.026,-0.021,1.001,0.916,0.793,-0.183
-0.025,-0.023,1.001,0.854,0.732,-0.122
-0.024,-0.024,1.001,0.977,0.671,0.000
-0.023,-0.024,1.001,0.916,0.793,-0.061
-0.023,-0.024,1.001,0.854,0.793,-0.305
-0.022,-0.023,1.001,0.977,0.671,-0.183
-0.023,-0.021,1.001,0.854,0.671,-0.122
-0.023,-0.020,1.001,0.793,0.793,-0.122
-0.026,-0.020,1.002,1.038,0.610,-0.183
-0.025,-0.019,1.001,0.977,0.793,-0.122
-0.026,-0.020,1.001,0.977,0.671,-0.244
-0.026,-0.019,1.001,0.916,0.610,-0.183
-0.026,-0.020,1.001,0.916,0.732,-0.122

1.410,0.043,0.997,3.662,1.282,-20.508
1.452,-0.111,0.991,3.662,1.282,-15.564
1.382,-0.238,0.997,1.099,1.892,-10.925
1.209,-0.344,0.996,2.197,3.052,-7.568
0.825,-0.388,1.069,3.723,4.395,-3.784
0.532,-0.394,1.009,4.211,3.723,3.418
0.442,-0.301,1.004,4.456,1.160,17.883
0.133,-0.464,1.007,2.136,2.686,38.879
0.331,-0.477,1.038,-1.343,4.944,49.561
-0.338,-0.414,1.043,0.366,4.883,46.204
-0.490,-0.089,0.990,-0.610,1.282,33.569
-0.740,-0.012,0.990,-1.099,-0.366,33.997
-0.942,0.052,0.986,1.099,-0.061,36.682
-0.828,0.194,1.000,1.953,1.770,31.067
-0.781,0.284,0.990,2.014,3.601,22.888
-0.840,0.259,0.987,0.366,5.737,14.221
-0.869,0.245,1.054,-0.793,7.996,3.479
-0.829,0.086,1.027,0.977,3.784,-5.066
-0.897,0.044,1.037,0.061,-0.732,-12.268
-0.986,0.078,0.980,1.160,-4.944,-13.794
-1.081,0.091,0.983,1.648,-2.136,-4.700
-0.929,0.023,0.994,2.441,0.122,11.536
-0.911,0.021,0.997,3.113,0.854,23.865
-0.841,-0.057,0.995,2.380,0.488,28.503
-0.800,-0.113,0.996,1.282,0.549,25.513
-0.765,-0.110,0.998,0.916,0.549,17.700
-0.753,-0.087,0.998,1.160,0.732,9.094
-0.678,-0.074,1.001,1.160,0.793,2.197
-0.605,-0.088,1.001,1.160,0.793,-1.648
-2.084,-0.401,0.989,1.160,0.854,-2.319
-0.329,-0.061,1.015,0.854,0.549,0.244
-0.039,-0.022,1.005,0.244,1.099,-0.244
-0.030,-0.023,0.999,1.160,0.610,-0.244
-0.032,-0.023,1.001,1.038,0.671,-0.122
-0.037,-0.023,0.998,0.793,0.732,-0.183
-0.042,-0.027,1.008,0.732,0.732,-0.183
-0.046,-0.024,1.001,0.977,0.732,-0.061
-0.044,-0.024,1.000,1.038,0.610,0.000
-0.042,-0.020,1.000,1.221,0.732,-0.061
-0.038,-0.023,1.001,0.977,0.671,-0.061
-0.033,-0.017,1.004,0.671,0.793,0.061
-0.031,-0.016,1.004,0.610,0.854,0.122
-0.023,-0.017,0.999,0.793,0.854,-0.061
-0.020,-0.020,1.001,0.732,0.732,-0.061
-0.014,-0.019,1.003,0.610,0.854,-0.061
-0.012,-0.021,1.002,0.671,0.854,-0.305
-0.008,-0.025,1.001,0.793,0.732,-0.183
-0.009,-0.024,1.000,0.671,0.732,-0.122
-0.012,-0.024,1.002,0.793,0.732,-0.244
-0.015,-0.024,1.001,0.854,0.610,-0.183
-0.020,-0.021,1.004,1.099,0.671,-0.183
-0.023,-0.021,1.001,1.038,0.671,-0.305
-0.026,-0.020,1.000,0.916,0.610,-0.244
-0.032,-0.020,1.001,0.854,0.610,-0.244
-0.034,-0.018,1.002,1.160,0.671,-0.061
-0.036,-0.020,1.001,0.977,0.671,0.000
-0.036,-0.017,1.001,1.038,0.732,0.000
-0.035,-0.018,1.003,0.916,0.793,0.000
-0.034,-0.018,1.001,0.793,0.671,-0.061
-0.031,-0.020,1.001,0.793,0.732,-0.061
-0.027,-0.020,1.001,0.916,0.916,0.061
-0.025,-0.022,1.001,0.977,0.732,0.000
-0.022,-0.024,1.002,0.977,0.671,-0.061
-0.020,-0.025,1.001,0.854,0.549,0.000
-0.019,-0.025,1.001,0.854,0.671,0.000
-0.021,-0.025,1.001,0.977,0.610,-0.061
-0.021,-0.022,1.001,1.282,0.732,0.000
-0.021,-0.021,1.001,0.977,0.732,-0.061
-0.022,-0.020,1.001,0.916,0.671,-0.244
-0.025,-0.019,1.002,0.854,0.732,-0.244
-0.024,-0.018,1.001,0.916,0.854,-0.244
-0.023,-0.019,1.001,0.854,0.732,-0.122
-0.023,-0.019,1.001,0.977,0.854,0.000
-0.023,-0.021,1.001,0.854,0.854,-0.061
-0.022,-0.022,1.001,0.732,0.732,-0.122
-0.021,-0.021,1.001,0.793,0.671,-0.122
-0.017,-0.021,1.001,0.854,0.671,-0.122
-0.016,-0.023,1.002,0.793,0.793,-0.061
-0.013,-0.023,1.002,1.038,0.977,-0.122
-0.013,-0.022,1.001,0.916,0.732,-0.183
-0.012,-0.021,1.001,0.977,0.793,-0.122
-0.017,-0.021,1.001,0.977,0.793,-0.244
-0.022,-0.025,1.001,0.977,0.793,-0.305
-0.029,-0.025,1.003,0.977,0.793,-0.366
-0.033,-0.024,1.001,1.160,0.732,-0.244
-0.036,-0.024,1.001,0.977,0.793,-0.244
-0.036,-0.022,1.002,0.854,0.549,-0.244
-0.035,-0.021,1.001,0.977,0.610,-0.061
-0.032,-0.019,1.002,0.977,0.793,-0.061
-0.029,-0.020,1.004,0.916,0.671,-0.061
-0.025,-0.019,1.001,0.977,0.732,-0.122
-0.020,-0.020,1.001,0.916,0.793,-0.122
-0.018,-0.023,1.002,0.854,0.671,-0.061
-0.018,-0.021,1.001,0.916,0.732,-0.122
-0.020,-0.022,1.001,0.916,0.732,-0.122
-0.022,-0.019,1.002,0.732,0.854,-0.244
-0.023,-0.020,1.000,0.977,1.038,-0.122
-0.026,-0.019,1.001,0.916,0.793,-0.122
-0.029,-0.021,1.003,0.732,0.671,-0.122
-0.030,-0.021,1.001,0.854,0.732,-0.061
-0.031,-0.022,1.001,0.854,0.793,-0.183
-0.032,-0.021,1.002,0.977,0.732,-0.183
-0.033,-0.020,1.001,0.916,0.916,-0.061
-0.032,-0.021,1.001,0.977,0.854,0.000
-0.032,-0.019,1.001,0.916,0.793,0.000
-0.033,-0.019,1.001,0.854,0.732,-0.061
-0.030,-0.018,1.001,0.854,0.854,-0.061
-0.026,-0.021,1.002,0.977,0.793,0.000
-0.027,-0.023,1.001,1.038,0.671,0.061
-0.026,-0.023,1.001,0.916,0.793,0.061
-0.023,-0.023,1.001,0.916,0.854,-0.122
-0.021,-0.022,1.001,0.916,0.854,-0.122
-0.021,-0.021,1.003,0.854,0.671,-0.061
-0.022,-0.020,1.002,0.854,0.732,-0.183
-0.021,-0.022,1.001,0.916,0.732,-0.183
-0.022,-0.020,1.001,1.038,0.732,0.000
-0.021,-0.020,1.002,0.916,0.671,-0.183
-0.023,-0.021,1.001,0.793,0.610,-0.122
-0.022,-0.022,1.001,0.793,0.671,-0.183

-0.410,0.089,1.014,3.784,0.061,-5.554
-0.044,-0.005,1.003,1.648,0.793,-0.610
-0.029,-0.019,1.004,-0.244,0.854,-0.183
-0.024,-0.023,0.999,0.793,0.610,-0.122
-0.028,-0.020,0.998,0.671,0.549,-0.122
-0.027,-0.024,1.001,1.099,0.610,-0.183
-0.027,-0.026,1.003,1.160,0.610,-0.183
-0.025,-0.025,1.001,1.160,0.549,-0.122
-0.023,-0.024,1.000,1.282,0.610,-0.244
-0.023,-0.024,1.001,1.282,0.366,-0.244
-0.024,-0.024,1.009,1.038,0.671,-0.244
-0.025,-0.020,1.007,0.183,0.732,-0.244
-0.026,-0.020,1.000,-0.061,1.099,-0.183
-0.029,-0.018,1.000,0.122,1.099,-0.061
-0.028,-0.018,1.000,0.244,1.038,-0.122
-0.030,-0.021,1.003,0.427,0.854,-0.183
-0.029,-0.020,1.006,0.610,0.671,-0.183
-0.027,-0.021,1.001,0.916,0.732,-0.244
-0.026,-0.022,1.000,0.977,0.610,-0.305
-0.026,-0.023,1.001,1.099,0.732,-0.305
-0.025,-0.021,1.003,1.343,0.916,-0.244
-0.025,-0.022,1.002,0.977,0.732,-0.244
-0.023,-0.022,1.001,1.038,0.732,-0.122
-0.022,-0.021,1.001,1.038,0.854,-0.122
-0.022,-0.022,1.002,0.977,0.854,-0.183
-0.022,-0.022,1.001,0.854,0.793,-0.122
-0.021,-0.022,1.003,0.854,0.732,-0.183
-0.022,-0.021,1.000,0.977,0.671,-0.183
-0.024,-0.021,1.002,0.916,0.854,-0.183
-0.024,-0.021,1.002,0.854,0.732,-0.183
-0.023,-0.021,1.002,1.038,0.916,-0.122
-0.025,-0.022,1.001,1.099,0.916,-0.122
-0.026,-0.021,1.000,1.099,0.854,-0.122
-0.026,-0.022,1.001,1.343,0.732,-0.122
-0.026,-0.021,1.001,1.160,0.793,0.000
-0.026,-0.022,1.001,0.793,0.610,-0.061
-0.026,-0.022,1.002,0.854,0.732,-0.061
-0.026,-0.023,1.001,1.099,0.854,-0.122
-0.025,-0.022,1.001,0.977,0.732,-0.061
-0.025,-0.022,1.001,0.610,0.671,0.000
-0.023,-0.021,1.002,0.732,0.671,-0.183
-0.023,-0.019,1.001,0.793,0.671,-0.183
-0.023,-0.020,1.001,0.977,0.671,-0.061
-0.022,-0.021,1.001,0.854,0.793,-0.122
-0.022,-0.020,1.001,0.916,0.732,-0.122
-0.022,-0.021,1.001,0.793,0.549,-0.061
-0.023,-0.022,1.001,0.793,0.488,-0.122
-0.023,-0.022,1.001,1.099,0.793,-0.061
-0.023,-0.022,1.001,1.038,0.732,-0.122
-0.022,-0.022,1.002,1.099,0.732,-0.122
-0.022,-0.022,1.003,1.099,0.854,-0.061
-0.023,-0.021,1.001,0.977,0.793,-0.061
-0.023,-0.021,1.001,0.977,0.854,-0.183
-0.025,-0.021,1.001,1.038,0.793,-0.122
-0.024,-0.022,1.002,0.977,0.732,0.000
-0.026,-0.023,1.001,0.793,0.732,-0.061
-0.027,-0.022,1.001,0.854,0.916,0.000
-0.028,-0.021,1.001,0.854,0.671,-0.183
-0.026,-0.023,1.001,0.916,0.793,-0.122
-0.026,-0.022,1.001,0.916,0.854,-0.183
-0.026,-0.022,1.001,1.038,0.732,-0.244
-0.026,-0.021,1.001,0.916,0.732,-0.305
-0.025,-0.020,1.001,1.160,0.793,-0.122
-0.023,-0.021,1.001,0.916,0.671,-0.122
-0.024,-0.021,1.001,0.854,0.854,-0.061
-0.023,-0.021,1.001,0.793,0.854,0.000
-0.023,-0.020,1.001,0.916,0.549,-0.122
-0.023,-0.021,1.001,0.916,0.610,-0.183
-0.023,-0.021,1.001,0.916,0.854,-0.122
-0.023,-0.022,1.001,0.916,0.732,-0.183
-0.022,-0.021,1.001,0.854,0.549,-0.122
-0.023,-0.022,1.001,0.977,0.671,-0.061
-0.023,-0.022,1.001,0.793,0.732,-0.122
-0.023,-0.023,1.003,0.854,0.916,-0.122
-0.023,-0.021,1.002,0.854,0.916,-0.122
-0.024,-0.022,1.001,0.854,0.793,-0.183
-0.024,-0.021,1.002,0.916,0.793,-0.122
-0.025,-0.022,1.001,0.854,0.732,-0.061
-0.024,-0.021,1.001,0.854,0.732,-0.183
-0.026,-0.022,1.002,0.854,0.671,-0.183
-0.024,-0.021,1.001,1.099,0.610,-0.122
-0.026,-0.022,1.001,0.977,0.671,-0.183
-0.026,-0.021,1.002,0.977,0.793,0.000
-0.027,-0.021,1.001,0.854,0.610,0.000
-0.026,-0.022,1.001,0.671,0.732,-0.122
-0.027,-0.023,1.002,0.732,0.732,-0.183
-0.027,-0.022,1.001,0.854,0.793,0.000
-0.026,-0.022,1.001,0.671,0.732,0.061
-0.026,-0.022,1.002,0.793,0.854,-0.122
-0.025,-0.021,1.002,0.854,0.854,-0.244
-0.026,-0.021,1.002,0.854,0.854,-0.122
-0.025,-0.021,1.002,0.916,0.916,-0.061
-0.024,-0.020,1.001,0.916,1.038,-0.061
-0.024,-0.021,1.001,0.793,0.854,-0.183
-0.024,-0.021,1.001,0.671,0.854,-0.122
-0.024,-0.021,1.001,0.732,0.977,-0.061
-0.025,-0.022,1.002,0.732,0.793,-0.061
-0.025,-0.022,1.002,0.671,0.671,-0.122
-0.025,-0.021,1.001,0.977,0.732,0.122
-0.026,-0.025,1.002,1.038,0.793,-0.122
-0.027,-0.021,1.002,0.793,0.977,-0.305
-0.074,-0.043,1.007,1.038,0.977,-0.366
0.091,0.050,0.998,1.587,0.854,-1.160
-0.018,-0.018,1.003,1.465,0.916,-1.282
-0.066,-0.042,1.003,0.427,1.038,-0.366
-0.019,-0.034,1.001,0.488,0.977,-0.916
-0.053,-0.087,1.006,-0.122,0.977,-1.343
-0.006,-0.048,1.003,-0.061,1.221,-3.296
-0.074,-0.115,1.020,2.136,0.854,-5.676
-0.107,-0.680,1.116,3.601,0.366,-16.541
-0.053,-0.214,0.958,-3.845,2.075,-43.335
-0.045,-0.114,1.021,7.080,0.732,-59.937
-0.152,0.015,1.046,5.493,0.793,-55.298
-0.259,0.075,1.049,10.315,-0.854,-43.152
-0.238,0.090,1.064,16.602,-2.014,-32.654
-0.160,0.051,1.162,22.095,-1.465,-23.010
-0.085,0.037,1.200,22.705,-4.883,-15.686
-0.099,0.054,1.167,15.747,-11.353,-10.071
-0.156,0.065,1.099,8.789,-17.578,-5.859

-1.647,0.668,0.980,-2.808,2.136,-18.799
-0.130,0.058,0.997,3.052,0.183,-7.263
-0.021,-0.025,1.012,2.625,0.122,-0.305
-0.021,-0.025,1.005,1.892,0.549,0.183
-0.024,-0.021,1.011,1.038,0.916,0.061
-0.024,-0.015,0.999,0.549,0.977,-0.244
-0.027,-0.015,0.995,0.366,0.977,-0.305
-0.031,-0.015,1.001,0.549,0.916,-0.305
-0.033,-0.019,1.010,0.854,1.160,-0.244
-0.033,-0.021,1.001,0.793,0.916,-0.183
-0.031,-0.025,0.999,0.916,0.916,-0.061
-0.030,-0.025,1.001,1.099,0.793,-0.244
-0.026,-0.026,1.006,1.099,0.916,-0.122
-0.024,-0.026,1.003,1.343,0.916,-0.061
-0.020,-0.026,1.001,1.648,1.038,-0.122
-0.018,-0.025,0.998,1.648,0.854,-0.122
-0.017,-0.025,1.001,1.648,0.793,-0.061
-0.017,-0.025,1.006,1.526,0.671,0.061
-0.017,-0.027,1.003,1.465,0.671,0.061
-0.017,-0.026,1.000,1.404,0.793,-0.061
-0.026,-0.338,1.040,1.953,0.610,-1.099
-0.030,0.172,0.967,6.897,0.061,-5.432
-0.027,-0.006,1.001,2.441,0.671,-1.587
-0.028,-0.020,1.005,1.038,0.793,-0.244
-0.030,-0.021,1.001,1.221,0.671,-0.366
-0.029,-0.024,1.001,1.343,0.732,-0.366
-0.028,-0.026,1.001,1.343,0.671,-0.244
-0.025,-0.031,1.001,1.099,0.732,-0.244
-0.023,-0.031,1.001,1.038,0.549,-0.183
-0.023,-0.028,1.001,0.793,0.793,-0.244
-0.025,-0.025,1.001,0.854,0.854,-0.183
-0.028,-0.022,1.002,0.916,0.854,-0.244
-0.033,-0.020,1.005,0.916,0.793,-0.244
-0.037,-0.018,1.001,0.916,0.793,-0.122
-0.039,-0.019,1.000,0.671,0.671,-0.061
-0.041,-0.020,1.001,0.671,0.488,0.122
-0.038,-0.023,1.004,0.427,0.732,0.061
-0.034,-0.026,1.002,0.488,0.671,0.061
-0.029,-0.028,1.003,0.488,0.732,0.000
-0.024,-0.029,1.001,0.671,0.916,-0.061
-0.019,-0.029,1.001,0.488,0.671,0.000
-0.014,-0.030,1.002,0.488,0.671,-0.183
-0.008,-0.030,1.001,0.488,0.732,-0.122
-0.005,-0.028,1.002,0.427,0.793,-0.183
-0.004,-0.028,1.002,0.305,0.854,-0.366
-0.011,-0.024,1.002,0.427,0.916,-0.244
-0.012,-0.020,1.001,0.183,0.732,-0.122
0.012,-0.036,1.002,-0.244,0.916,0.305
-0.011,-0.024,1.001,0.305,0.732,-0.183
-0.025,-0.014,1.001,0.427,0.732,-0.244
-0.010,-0.024,1.001,0.183,0.854,-0.122
-0.017,-0.022,1.001,0.122,0.916,0.000
-0.030,-0.013,1.004,0.000,0.854,-0.183
-0.017,-0.027,1.002,0.000,0.732,0.000
-0.035,-0.017,1.003,0.061,0.732,-0.061
-0.045,-0.012,1.001,0.305,0.916,0.061
-0.045,-0.019,1.003,0.244,0.916,0.244
-0.046,-0.026,1.002,0.366,0.977,0.549
-0.052,-0.025,1.003,0.244,0.916,0.427
-0.050,-0.028,1.003,0.183,0.671,0.366
-0.049,-0.026,1.001,0.427,0.671,0.305
-0.046,-0.023,1.001,0.610,0.610,0.000
-0.043,-0.021,1.001,0.977,0.549,-0.061
-0.037,-0.037,1.005,1.038,0.549,0.122
-0.031,-0.019,1.001,0.244,0.793,-0.061
-0.025,-0.018,1.003,0.793,0.793,-0.061
-0.018,-0.019,1.002,0.793,0.671,0.000
-0.014,-0.021,1.000,0.793,0.549,0.061
-0.009,-0.023,1.002,0.854,0.488,0.061
-0.005,-0.023,1.001,0.854,0.732,-0.061
-0.003,-0.025,1.001,0.854,0.549,0.000
-0.000,-0.026,1.001,0.671,0.549,0.000
0.001,-0.027,1.003,0.610,0.732,-0.122
0.003,-0.029,1.001,0.427,0.671,-0.122
0.004,-0.026,1.001,0.305,0.610,-0.183
0.003,-0.024,1.000,0.427,0.854,-0.061
0.003,-0.021,1.001,0.366,0.732,-0.183
-0.000,-0.016,1.001,0.427,0.671,-0.427
-0.010,-0.013,1.001,0.549,0.854,-0.427
-0.024,-0.011,1.001,0.610,0.916,-0.305
-0.040,-0.012,1.003,0.549,0.977,-0.305
-0.052,-0.017,1.001,0.671,0.916,-0.122
-0.063,-0.024,1.006,0.549,0.671,-0.122
-0.067,-0.029,1.002,0.305,0.610,-0.061
-0.067,-0.035,1.001,0.366,0.610,0.000
-0.060,-0.028,1.002,0.549,0.671,0.061
-0.052,-0.025,1.005,0.366,0.488,0.366
-0.042,-0.025,1.003,0.427,0.488,0.549
-0.031,-0.026,1.003,0.427,0.610,0.366
-0.019,-0.017,1.001,0.488,0.671,0.061
-0.010,-0.019,1.001,0.610,0.610,0.061
-0.001,-0.015,1.003,0.732,0.610,0.000
0.003,-0.021,1.004,1.465,0.610,-0.061
0.009,-0.013,0.998,1.343,0.732,0.000
0.003,-0.028,1.001,1.343,0.793,-0.122
-0.002,-0.025,1.002,1.282,0.854,-0.305
-0.010,-0.057,1.002,1.160,0.854,-0.244
-0.026,-0.087,1.005,1.038,0.854,-1.221
-0.024,-0.033,1.003,0.977,0.854,-3.235
-0.033,-0.001,1.002,2.136,0.977,-3.662
-0.043,0.002,1.013,1.770,0.793,-2.991
-0.053,-0.001,1.022,-0.305,0.244,-2.258
-0.079,-0.036,1.024,-2.747,-0.366,-1.953
-0.152,-0.037,0.997,-2.869,-0.977,-5.981
-0.146,0.050,0.976,-0.854,-0.732,-25.330
-0.095,-0.025,1.055,-0.244,0.854,-45.288
-0.072,0.001,1.050,-1.221,1.282,-58.472
-0.123,0.012,1.088,-3.235,-1.160,-58.167
-0.117,-0.009,1.096,-3.540,-3.967,-51.941
-0.277,0.156,1.116,-0.793,-7.751,-45.349
-0.130,0.109,1.114,1.221,-11.963,-29.968
-0.103,-0.015,1.151,0.366,-15.198,-9.460
-0.145,-0.007,1.133,-8.301,-16.235,1.465
-0.188,-0.008,1.092,-11.841,-17.944,5.005
-0.210,-0.030,1.066,-5.493,-17.212,3.845
-0.206,-0.044,1.062,2.747,-13.123,-1.160
-0.185,-0.043,1.064,7.690,-6.775,-6.592
-0.179,-0.031,1.053,7.568,1.221,-9.949
-0.192,-0.021,1.008,3.540,10.864,-10.254

1.867,0.503,1.004,1.770,0.183,19.226
2.412,0.643,1.003,1.038,0.671,27.527
2.694,0.562,1.017,0.916,1.160,28.320
3.081,0.590,1.003,2.075,0.610,14.465
2.859,-0.056,1.029,0.916,1.038,-9.399
2.166,-0.360,1.027,2.319,1.709,-47.302
0.742,-0.696,0.968,3.540,-1.648,-81.177
0.930,-0.886,0.984,1.587,-0.305,-98.145
1.167,-0.850,1.062,-0.427,6.470,-83.923
-0.009,-0.794,1.060,0.977,9.583,-30.334
0.019,-0.830,0.997,1.648,3.418,46.875
-1.672,-1.009,1.005,1.038,3.296,107.605
-1.844,-0.249,1.066,-2.136,5.798,108.032
-2.444,0.954,1.023,-1.770,3.296,67.993
-1.835,1.080,0.973,-4.517,-1.099,41.870
-1.220,0.625,0.977,-0.977,0.366,22.766
-1.552,0.310,0.983,3.296,1.709,-3.052
-1.644,0.044,0.998,1.770,2.991,-20.325
-1.711,0.075,0.983,0.183,3.601,-32.593
-1.488,0.200,0.991,3.601,2.563,-36.499
-1.349,0.208,0.997,6.287,1.648,-24.902
-1.316,0.083,1.000,5.676,1.892,-11.047
-1.060,-0.157,1.007,4.211,2.014,-2.258
-0.964,-0.322,1.009,2.258,2.502,0.916
-0.839,-0.315,1.001,0.549,2.380,0.549
-0.692,-0.223,0.999,0.244,1.770,0.732
-0.562,-0.071,1.001,0.610,1.343,0.916
-0.058,-0.033,1.011,0.488,0.854,-0.061
-0.011,-0.038,1.005,-0.305,0.977,-0.305
-0.033,-0.404,0.999,-0.427,1.099,-2.441
0.015,-0.018,0.996,0.916,0.854,-21.301
0.018,0.149,0.995,2.319,0.671,-30.029
0.273,-0.480,1.006,2.319,0.671,-16.296
0.464,-0.376,1.009,1.709,0.977,-20.386
0.160,0.058,1.000,1.587,1.526,-31.128
0.108,0.153,0.995,1.404,1.831,-22.888
0.137,0.035,1.000,1.099,1.709,-4.822
0.046,0.032,1.004,0.977,1.343,8.667
0.031,0.028,1.002,0.854,1.404,16.357
0.093,-0.008,1.001,1.099,1.343,20.325
0.062,-0.017,1.002,0.854,1.160,20.447
0.073,-0.020,1.001,1.038,1.099,17.273
0.075,-0.009,1.006,0.916,1.038,12.939
0.082,-0.038,1.002,0.916,0.977,10.193
0.048,-0.063,0.999,0.916,1.038,7.690
0.047,-0.081,1.000,0.916,0.732,4.822
0.027,-0.065,1.004,0.793,0.671,2.197
-0.036,-0.024,1.004,0.793,0.671,1.709
-0.063,0.001,1.005,0.671,0.854,4.761
-0.045,-0.020,1.005,0.549,0.549,9.155
-0.055,0.003,1.001,0.427,0.244,12.451
-0.070,0.018,1.003,0.488,-0.183,13.977
-0.051,0.017,1.001,0.488,-0.549,14.038
-0.090,0.030,1.001,0.427,-0.732,14.771
-0.060,0.008,1.000,0.793,-0.610,15.564
-0.033,-0.040,1.001,0.671,-0.610,15.381
-0.038,-0.037,1.001,0.793,-0.549,12.695
-0.008,-0.043,1.001,0.793,-0.427,9.277
-0.036,-0.032,1.001,0.671,-0.305,6.714
-0.041,-0.039,0.998,0.916,-0.183,4.700
-0.055,-0.048,1.002,1.099,0.061,2.747
-0.039,-0.037,1.002,1.099,0.122,1.160
-0.073,-0.015,1.002,0.977,0.305,0.854
-0.061,-0.012,1.000,1.038,0.305,1.282
-0.092,0.019,0.999,1.038,0.427,1.343
-0.100,0.031,1.000,1.038,0.366,2.258
-0.083,0.023,1.002,1.099,0.427,4.517
-0.042,-0.007,1.001,1.160,0.549,6.714
-0.054,-0.012,1.000,0.977,0.427,7.141
-0.046,-0.013,1.000,0.854,0.671,6.287
-0.051,-0.013,1.000,1.038,0.732,4.517
-0.049,-0.015,1.000,1.099,0.610,2.808
-0.066,-0.001,1.002,1.038,0.732,1.648
-0.070,0.007,1.003,0.916,0.610,0.977
-0.045,-0.000,1.003,0.854,0.732,0.427
-0.086,-0.005,1.003,0.977,0.671,-0.183
-0.071,-0.004,1.001,0.671,0.671,-0.610
-0.059,-0.019,1.000,1.038,0.671,-0.305
-0.097,-0.004,1.001,1.038,0.854,0.549
-0.047,-0.012,1.001,0.793,0.793,1.465
-0.043,-0.016,1.002,0.671,0.671,3.113
-0.026,-0.026,1.003,0.732,0.732,4.028
-0.053,-0.031,1.001,0.854,0.732,3.784
-0.044,-0.028,1.001,0.732,0.854,3.052
-0.055,-0.017,1.001,0.854,0.732,2.319
-0.042,-0.022,1.002,0.732,0.610,1.953
-0.048,-0.015,1.002,0.732,0.671,2.441
-0.044,-0.007,1.002,0.854,0.732,2.869
-0.056,-0.007,1.001,0.793,0.549,2.747
-0.060,-0.009,1.003,0.671,0.671,2.380
-0.048,-0.009,1.001,0.916,0.732,2.563
-0.064,0.000,1.001,0.854,0.793,3.052
-0.027,-0.015,1.001,0.732,0.732,3.662
-0.025,-0.021,1.001,0.793,0.671,4.089
-0.025,-0.028,1.001,0.854,0.549,4.150
-0.005,-0.035,1.004,0.732,0.671,3.845
-0.024,-0.035,1.001,1.038,0.854,2.930
-0.010,-0.043,1.000,0.916,0.732,1.526
-0.042,-0.027,1.001,0.854,0.732,0.305
-0.013,-0.026,1.004,1.160,0.671,0.183
-0.042,-0.014,1.005,1.038,0.549,0.732
-0.025,-0.017,1.005,1.099,0.793,0.977
-0.041,-0.011,1.001,0.977,0.854,1.465
-0.017,-0.017,1.001,0.977,0.732,1.648
-0.018,-0.013,1.001,0.854,0.671,1.709
-0.232,-0.002,0.997,0.793,0.610,1.465
-0.640,0.130,0.996,0.854,0.549,-0.366
-0.065,-0.013,1.008,1.953,0.183,-0.671
-0.024,-0.022,1.007,1.709,0.488,-0.061
-0.024,-0.022,1.003,1.160,0.610,-0.122
-0.025,-0.021,1.000,1.221,0.977,-0.122
-0.029,-0.021,0.996,0.854,0.854,-0.061
-0.030,-0.022,1.001,0.916,0.793,0.000
-0.033,-0.022,1.005,0.916,0.732,-0.061
-0.033,-0.022,1.002,1.282,0.916,-0.122
-0.031,-0.019,1.001,1.099,0.916,-0.244
-0.030,-0.019,1.001,1.038,0.732,-0.122
-0.029,-0.019,1.004,0.916,0.671,0.000
-0.027,-0.018,1.004,0.793,0.732,-0.122

1.909,0.409,1.000,1.404,0.549,36.316
2.182,0.478,0.999,0.854,0.671,40.222
2.267,0.440,1.016,-0.244,0.610,37.109
2.030,0.325,1.033,0.366,0.427,20.996
1.935,0.261,1.006,0.610,0.488,-6.653
1.519,0.116,0.986,-0.061,0.244,-35.400
1.152,-0.057,0.982,2.747,0.610,-57.678
0.941,-0.245,0.994,1.038,2.869,-60.730
0.603,-0.578,1.025,3.235,5.554,-46.997
0.066,-0.672,1.041,3.174,7.080,-34.363
-0.106,-0.626,1.009,4.517,3.174,-17.944
-0.171,-0.867,1.010,3.540,3.052,12.329
-0.161,-0.772,1.042,0.244,4.944,29.785
-1.078,-0.542,1.040,-0.305,4.883,27.344
-0.979,-0.052,0.990,1.587,0.183,21.790
-1.051,-0.010,0.983,1.831,-0.793,32.227
-1.159,-0.016,0.993,1.709,0.122,45.593
-0.926,0.004,0.998,2.808,2.014,44.922
-1.038,0.094,0.993,2.808,3.540,31.555
-1.218,0.167,0.987,1.709,6.348,16.541
-1.132,0.140,1.045,-0.244,8.545,9.155
-1.146,0.049,1.027,0.732,4.456,9.033
-1.235,-0.011,1.041,-0.549,0.793,10.620
-0.997,-0.052,0.992,-0.732,-3.113,10.559
-1.038,-0.040,0.986,0.305,-3.845,7.874
-0.962,0.077,0.996,0.244,-2.014,0.793
-0.716,0.041,0.997,0.366,-0.549,0.610
-0.622,-0.023,0.999,0.244,0.427,5.615
-0.533,-0.039,0.996,-0.061,0.793,7.874
-0.415,-0.058,0.998,0.488,0.671,7.935
-0.365,-0.059,1.000,0.549,0.671,7.263
-0.393,-0.035,1.000,1.526,0.732,5.859
-0.315,-0.031,0.999,2.014,0.732,5.615
-0.292,-0.016,1.000,2.197,0.488,7.080
-0.267,-0.020,1.001,2.014,0.427,8.423
-0.292,0.000,1.001,1.892,0.549,8.240
-0.269,0.024,1.002,1.770,0.549,7.935
-0.240,0.030,1.001,1.831,0.854,8.423
-0.203,0.031,1.003,1.709,0.854,8.972
-0.154,0.022,1.004,1.465,0.732,7.874
-0.165,0.025,1.001,1.160,0.732,6.042
-0.118,0.009,1.000,0.793,0.793,3.967
-0.104,0.007,0.998,0.732,0.671,2.197
-0.142,0.021,0.997,0.916,0.793,0.916
-0.099,0.010,1.002,1.221,0.732,0.305
-0.059,-0.007,1.005,1.160,0.488,0.000
-0.055,-0.024,1.001,1.221,0.671,0.000
-0.050,-0.037,1.001,1.343,0.671,0.061
-0.047,-0.042,1.001,1.282,0.549,0.183
-0.039,-0.036,1.001,1.343,0.488,0.000
-0.034,-0.026,1.002,1.404,0.610,-0.305
-0.028,-0.013,1.001,1.221,0.610,-0.183
-0.024,-0.005,1.001,1.038,0.732,-0.366
-0.018,-0.003,1.001,0.977,0.732,-0.244
-0.016,-0.011,1.006,0.732,0.854,-0.183
-0.013,-0.019,1.002,0.671,0.793,-0.061
-0.014,-0.027,1.000,0.732,0.916,0.000
-0.016,-0.036,0.999,0.610,0.732,0.061
-0.020,-0.036,0.997,0.793,0.854,-0.122
-0.023,-0.031,1.005,0.793,0.549,-0.183
-0.026,-0.022,1.004,0.854,0.671,-0.366
-0.030,-0.018,1.005,1.099,0.671,-0.305
-0.030,-0.011,1.006,1.221,0.916,-0.244
-0.031,-0.011,1.000,0.977,0.793,-0.122
-0.031,-0.014,1.003,0.916,0.793,-0.061
-0.033,-0.017,1.000,0.854,0.732,-0.122
-0.032,-0.021,1.001,0.854,0.610,-0.183
-0.033,-0.023,1.000,0.793,0.732,-0.061
-0.031,-0.024,1.001,1.221,0.793,-0.122
-0.029,-0.023,1.001,0.854,0.793,-0.061
-0.026,-0.024,1.001,0.916,0.793,-0.183
-0.023,-0.026,1.000,1.038,0.671,-0.244
-0.020,-0.026,1.001,0.732,0.427,-0.061
-0.018,-0.028,1.000,0.793,0.488,-0.061
-0.016,-0.026,1.001,1.099,0.916,0.000
-0.017,-0.026,1.001,0.916,0.977,-0.122
-0.019,-0.022,1.001,1.038,0.793,-0.183
-0.021,-0.019,1.001,1.038,0.793,-0.183
-0.023,-0.016,1.000,0.793,0.977,-0.183
-0.026,-0.016,1.000,0.732,0.916,-0.122
-0.025,-0.018,1.001,0.977,0.977,-0.122
-0.019,-0.024,1.001,0.854,0.916,-0.061
-0.002,-0.036,1.005,0.854,0.977,-0.427
0.012,-0.045,1.001,0.916,0.854,-0.427
-0.005,-0.022,0.994,0.793,0.916,-0.610
-0.031,0.000,1.002,0.732,0.977,-0.793
-0.047,0.005,1.004,1.038,0.916,-0.366
-0.053,-0.007,1.005,1.282,0.854,-0.061
-0.057,-0.020,1.003,1.038,0.732,0.183
-0.058,-0.032,1.003,1.038,0.793,0.427
-0.056,-0.040,1.000,0.977,0.732,0.305
-0.049,-0.037,1.003,0.977,0.793,0.122
-0.040,-0.026,1.003,0.977,0.732,0.000
-0.033,-0.012,1.001,0.793,0.732,-0.183
-0.026,-0.002,1.000,0.732,0.610,-0.183
-0.018,-0.001,1.001,0.793,0.549,-0.183
-0.008,-0.012,1.005,0.793,0.671,-0.183
-0.000,-0.025,1.002,0.793,0.671,-0.061
0.003,-0.035,1.000,0.732,0.916,-0.061
0.002,-0.042,0.995,0.488,0.854,-0.061
0.000,-0.037,1.001,0.549,0.732,-0.183
-0.004,-0.029,1.005,0.671,0.732,-0.244
-0.010,-0.019,1.002,0.671,0.916,-0.244
-0.017,-0.014,1.004,0.610,0.732,-0.244
-0.026,-0.008,1.002,0.793,0.916,0.000
-0.033,-0.013,1.000,0.732,0.854,0.000
-0.036,-0.015,1.003,0.671,0.854,-0.183
-0.036,-0.014,0.998,0.671,0.793,-0.122
-0.033,-0.019,1.013,0.549,0.916,0.000
-0.032,-0.022,1.013,0.732,0.916,-0.122
-0.037,-0.023,0.997,0.732,0.916,-0.122
-0.035,-0.025,0.983,0.488,0.916,-0.244
-0.031,-0.023,0.988,0.488,0.793,-0.183
-0.034,-0.020,1.005,0.610,0.854,-0.244
-0.028,-0.020,0.996,0.671,0.793,-0.244
-0.031,-0.019,1.004,0.671,0.732,-0.305
-0.027,-0.019,1.002,0.488,1.038,0.122
-0.026,-0.023,1.007,0.122,0.977,0.061
-0.022,-0.025,1.013,-0.977,1.038,-0.122

1.542,0.362,0.999,0.732,0.854,19.348
1.660,0.300,1.003,-0.061,0.916,20.569
1.704,0.187,1.035,0.244,0.854,17.517
1.681,0.094,1.006,1.587,0.183,8.240
1.704,0.062,0.994,-0.427,0.916,-1.770
1.355,-0.170,0.985,2.014,1.160,-6.714
1.240,-0.248,0.990,2.808,1.953,-10.315
1.063,-0.332,0.990,1.221,3.662,-7.385
0.755,-0.412,1.088,3.967,5.127,-1.221
0.263,-0.478,1.012,5.005,4.517,0.305
0.343,-0.439,1.017,3.479,2.502,-0.366
0.085,-0.449,0.986,1.892,3.662,0.244
-0.213,-0.459,1.072,-0.061,6.470,-4.211
-0.644,-0.445,1.006,1.709,3.296,-12.695
-0.485,-0.422,0.985,1.831,0.183,-18.799
-1.124,-0.503,0.974,4.028,-0.061,-12.451
-1.208,-0.451,0.987,4.089,1.587,0.732
-1.354,-0.554,1.000,4.456,3.967,25.635
-1.530,-0.289,1.021,1.221,8.362,48.828
-1.476,-0.065,1.054,0.610,7.263,70.618
-1.492,0.045,1.071,0.244,0.732,92.651
-1.278,-0.008,0.973,0.793,-6.165,100.098
-1.415,0.199,0.978,1.709,-4.578,83.008
-1.179,0.238,0.994,1.282,-0.854,59.998
-1.139,0.210,0.995,1.831,0.549,42.542
-1.085,0.211,0.993,0.977,0.854,29.907
-0.922,0.127,1.000,0.305,0.671,25.146
-0.779,0.051,1.000,0.244,0.610,22.827
-0.669,0.017,0.997,0.305,0.610,17.212
-0.553,0.034,0.997,0.793,0.610,8.484
-0.444,0.025,1.000,0.916,0.671,0.244
-0.387,0.046,1.001,1.099,0.610,-5.371
-0.303,0.032,1.002,0.854,0.549,-7.080
-0.279,0.020,1.001,0.793,0.732,-6.897
-0.238,0.012,1.001,0.793,0.854,-6.348
-0.255,0.019,1.001,0.854,0.854,-5.981
-0.284,0.032,1.001,1.038,0.854,-4.517
-0.207,0.020,1.001,1.099,0.732,-2.014
-0.039,-0.020,1.001,0.916,0.671,-0.427
-0.027,-0.022,1.001,0.610,0.793,-0.183
-0.026,-0.020,1.000,0.549,0.610,-0.122
-0.026,-0.021,1.001,1.038,0.732,-0.061
-0.025,-0.023,1.000,1.526,0.549,-0.061
-0.025,-0.021,1.001,1.404,0.427,-0.244
-0.023,-0.023,1.002,1.282,0.732,-0.183
-0.023,-0.023,1.001,1.160,0.671,-0.061
-0.024,-0.023,1.001,1.099,0.854,-0.061
-0.025,-0.022,1.001,1.038,0.854,-0.122
-0.024,-0.023,1.001,1.160,0.916,0.000
-0.023,-0.022,1.000,0.854,0.916,-0.244
-0.024,-0.020,1.001,0.854,0.732,-0.305
-0.023,-0.021,1.001,0.732,0.732,-0.183
-0.023,-0.020,1.001,0.610,0.671,-0.183
-0.022,-0.020,1.001,0.671,0.732,-0.061
-0.021,-0.022,1.000,0.854,0.610,-0.061
-0.019,-0.023,1.001,0.977,0.671,-0.244
-0.021,-0.023,1.001,0.916,0.732,-0.183
-0.023,-0.024,1.001,0.916,0.671,-0.366
-0.024,-0.023,1.001,1.038,0.793,-0.305
-0.026,-0.022,1.002,1.099,0.732,-0.244
-0.027,-0.020,1.002,0.977,0.732,-0.061
-0.028,-0.020,1.001,1.099,0.854,-0.122
-0.028,-0.021,1.001,1.160,0.732,-0.061
-0.027,-0.022,1.001,1.099,0.793,0.000
-0.026,-0.021,1.001,1.038,0.793,-0.183
-0.025,-0.022,1.001,1.038,0.732,-0.244
-0.025,-0.022,1.001,1.099,0.671,-0.183
-0.023,-0.022,1.001,0.977,0.610,-0.122
-0.023,-0.022,1.001,0.854,0.427,-0.244
-0.023,-0.023,1.001,0.916,0.671,-0.183
-0.022,-0.023,1.001,0.916,0.549,-0.183
-0.022,-0.024,1.001,0.854,0.671,-0.122
-0.022,-0.023,1.001,1.038,0.732,-0.122
-0.023,-0.022,1.001,1.099,0.793,-0.183
-0.024,-0.023,1.001,0.916,0.793,-0.244
-0.025,-0.022,1.001,0.916,0.732,-0.183
-0.026,-0.023,1.001,1.038,0.854,-0.061
-0.028,-0.022,1.001,1.099,0.671,-0.183
-0.027,-0.022,1.001,1.038,0.671,-0.061
-0.027,-0.023,1.001,1.099,0.671,-0.305
-0.027,-0.023,1.001,0.977,0.732,-0.061
-0.027,-0.023,1.001,0.916,0.916,0.000
-0.027,-0.022,1.001,0.854,0.793,-0.122
-0.025,-0.021,1.001,0.793,0.793,-0.244
-0.026,-0.020,1.001,0.854,0.793,-0.122
-0.025,-0.020,1.002,1.099,0.854,-0.061
-0.024,-0.020,1.003,1.038,0.916,-0.061
-0.023,-0.022,1.002,0.977,0.732,0.000
-0.023,-0.022,1.002,0.854,0.671,-0.122
-0.024,-0.023,1.001,0.793,0.671,-0.061
-0.022,-0.023,1.001,0.977,0.671,0.000
-0.023,-0.024,1.001,1.160,0.793,-0.061
-0.024,-0.024,1.001,0.916,0.732,-0.122
-0.024,-0.023,1.001,0.977,0.793,-0.183
-0.024,-0.023,1.001,0.977,0.916,-0.244
-0.024,-0.023,1.001,1.038,0.549,-0.122
-0.025,-0.022,1.000,1.160,0.793,-0.061
-0.026,-0.021,1.000,1.160,0.793,-0.122
-0.024,-0.021,1.001,1.221,0.793,-0.183
-0.023,-0.021,1.001,1.099,0.854,-0.183
-0.024,-0.021,1.001,1.099,0.732,-0.244
-0.022,-0.021,1.001,1.038,0.549,-0.305
-0.023,-0.021,1.000,1.038,0.671,-0.244
-0.022,-0.021,1.000,1.099,0.793,-0.122
-0.023,-0.022,1.001,0.854,0.671,-0.122
-0.024,-0.023,1.001,0.854,0.793,-0.122
-0.026,-0.024,1.001,0.732,0.732,0.000
-0.026,-0.025,1.001,0.732,0.732,-0.122
-0.028,-0.025,1.000,0.854,0.793,-0.122
-0.028,-0.026,1.001,0.854,0.854,-0.061
-0.028,-0.024,1.001,0.854,0.793,-0.244
-0.029,-0.023,1.002,0.793,0.610,-0.244
-0.028,-0.020,1.001,0.916,0.671,-0.183
-0.027,-0.019,1.002,1.038,0.793,-0.244
-0.026,-0.019,1.002,1.038,0.610,-0.305
-0.024,-0.020,1.001,1.160,0.854,-0.122
-0.023,-0.021,1.001,0.916,0.732,-0.122
-0.022,-0.023,1.001,0.671,0.610,-0.122
-0.021,-0.024,1.001,0.732,0.671,-0.061

2.009,0.235,1.006,0.427,0.732,28.137
2.161,0.171,1.031,0.427,0.732,21.423
2.214,0.113,1.016,1.892,0.122,6.226
2.131,0.002,0.995,2.502,-0.305,-8.545
1.729,-0.154,0.985,2.197,0.732,-17.761
1.470,-0.179,1.001,0.793,1.282,-19.470
1.094,-0.422,0.988,2.075,3.540,-10.193
0.590,-0.590,1.085,5.493,5.676,-1.831
0.115,-0.528,1.021,5.615,4.822,2.563
-0.181,-0.701,0.999,4.578,2.625,14.221
-0.414,-0.746,1.027,1.038,4.578,23.804
-1.223,-0.535,1.053,0.427,5.737,15.015
-1.169,-0.159,0.991,2.014,1.587,5.188
-1.338,-0.054,0.994,1.221,-0.916,23.315
-1.352,0.131,0.989,1.831,0.305,38.879
-1.279,0.303,0.998,3.357,1.099,46.387
-1.147,0.284,0.998,3.906,2.197,49.744
-1.161,0.230,0.997,2.258,3.967,51.270
-1.298,0.307,1.006,0.305,5.859,47.058
-1.096,0.229,1.012,1.526,3.784,39.124
-1.107,0.218,1.015,0.732,2.136,20.874
-1.289,0.217,1.015,-0.183,0.305,-1.282
-1.091,0.090,1.001,0.427,-1.404,-12.756
-0.995,-0.024,0.996,0.305,-1.709,-15.076
-0.932,-0.043,0.994,-0.061,-0.732,-23.193
-0.689,-0.035,0.999,-0.061,0.122,-30.457
-0.557,-0.103,0.999,-0.610,0.854,-27.588
-0.414,-0.150,1.000,-0.732,1.343,-22.095
-0.317,-0.132,1.001,-0.305,1.343,-18.555
-0.220,-0.110,0.999,0.183,1.038,-15.564
-0.232,-0.085,1.000,1.099,0.977,-13.062
-0.221,-0.041,1.001,2.319,0.732,-9.460
-0.209,-0.015,1.004,2.625,0.549,-4.517
-0.224,0.010,1.003,2.441,0.549,-0.122
-0.222,0.014,1.001,2.197,0.732,2.319
-0.231,0.008,1.001,1.648,0.610,3.479
-0.287,0.005,1.000,1.648,0.610,4.089
-0.095,-0.021,1.000,1.587,0.549,2.686
-0.030,-0.025,1.002,1.099,0.732,0.183
-0.026,-0.023,1.001,0.732,0.854,-0.061
-0.025,-0.023,1.001,0.793,0.916,-0.061
-0.026,-0.023,1.001,0.977,0.854,-0.122
-0.026,-0.026,1.001,1.099,0.916,-0.122
-0.026,-0.025,1.001,1.099,0.793,-0.183
-0.026,-0.025,1.001,1.099,0.610,-0.122
-0.025,-0.024,1.001,1.160,0.671,-0.122
-0.025,-0.021,1.000,1.343,0.854,-0.122
-0.026,-0.021,1.003,1.038,0.671,-0.061
-0.026,-0.021,1.001,1.099,0.732,0.061
-0.027,-0.021,1.000,0.916,0.671,-0.183
-0.027,-0.020,1.001,0.977,0.732,-0.244
-0.029,-0.021,1.001,1.099,0.488,-0.183
-0.028,-0.023,1.002,1.038,0.793,0.000
-0.028,-0.022,1.001,0.793,0.854,-0.061
-0.027,-0.024,1.000,0.671,0.610,-0.122
-0.025,-0.024,1.000,0.671,0.610,-0.061
-0.025,-0.024,1.001,0.610,0.549,-0.061
-0.023,-0.024,1.003,0.854,0.549,-0.122
-0.023,-0.024,1.002,1.099,0.793,-0.183
-0.022,-0.022,1.001,0.916,0.793,-0.183
-0.023,-0.023,1.002,0.854,0.793,-0.244
-0.023,-0.022,1.002,0.916,0.671,-0.244
-0.023,-0.022,1.001,0.732,0.671,-0.183
-0.024,-0.021,1.000,0.732,1.038,-0.183
-0.024,-0.023,1.000,0.854,0.793,-0.244
-0.026,-0.023,1.001,0.854,0.793,-0.122
-0.027,-0.022,1.002,0.732,0.793,-0.061
-0.027,-0.023,1.001,0.854,0.671,-0.122
-0.026,-0.024,1.001,0.916,0.732,-0.183
-0.025,-0.025,1.000,0.854,0.610,-0.122
-0.026,-0.023,1.001,0.854,0.854,-0.061
-0.025,-0.023,1.002,1.038,0.793,-0.061
-0.026,-0.023,1.002,0.793,0.732,-0.122
-0.026,-0.023,1.001,0.793,0.732,-0.061
-0.025,-0.022,1.001,0.732,0.671,-0.244
-0.025,-0.021,1.001,0.610,0.671,-0.244
-0.026,-0.021,1.001,0.671,0.671,-0.244
-0.026,-0.021,1.000,0.732,0.854,-0.122
-0.025,-0.022,1.000,0.732,0.793,-0.122
-0.025,-0.022,1.000,0.916,0.671,-0.183
-0.025,-0.024,1.001,0.793,0.671,-0.122
-0.026,-0.024,1.001,0.916,0.732,-0.183
-0.025,-0.024,1.001,0.977,0.793,-0.061
-0.025,-0.023,1.002,0.977,0.671,-0.183
-0.024,-0.022,1.003,0.977,0.610,-0.244
-0.024,-0.021,1.002,0.793,0.671,-0.122
-0.023,-0.020,1.003,0.793,0.610,-0.122
-0.022,-0.021,1.001,0.793,0.671,-0.183
-0.024,-0.022,1.001,0.916,0.671,-0.183
-0.024,-0.018,1.002,0.854,0.854,-0.061
-0.024,-0.023,1.001,1.038,0.916,-0.122
-0.026,-0.023,1.001,1.160,0.793,-0.183
-0.026,-0.023,1.002,1.282,0.854,-0.244
-0.028,-0.022,1.001,1.160,0.793,-0.122
-0.028,-0.024,1.001,1.160,0.916,-0.061
-0.028,-0.023,1.001,1.221,1.038,0.183
-0.026,-0.023,1.001,1.038,0.854,0.000
-0.027,-0.023,1.001,1.160,0.793,-0.183
-0.023,-0.021,1.002,1.038,0.793,-0.183
0.366,0.143,0.994,0.549,0.916,0.916
-0.107,-0.047,1.008,-2.197,1.526,19.653
-0.058,-0.030,1.000,0.000,0.977,37.781
-0.072,-0.037,1.005,1.404,0.549,28.564
-0.017,-0.017,0.999,1.648,0.366,13.916
-0.002,-0.006,1.005,1.099,0.488,10.193
-0.031,-0.014,1.001,0.671,0.671,13.855
-0.036,-0.030,1.000,0.671,0.671,15.442
-0.026,-0.030,1.001,0.916,0.732,13.062
-0.026,-0.031,1.002,0.610,0.610,11.169
-0.030,-0.026,1.004,0.916,0.610,10.498
-0.024,-0.018,1.004,0.732,0.610,10.803
-0.045,-0.028,1.001,0.488,0.427,11.292
-0.051,-0.027,1.003,0.610,0.488,10.071
-0.023,-0.006,1.001,1.038,0.732,7.263
0.004,0.019,1.009,0.671,0.671,5.981
-0.058,-0.077,1.001,0.427,0.793,7.202
-0.078,-0.082,1.000,0.305,0.977,6.958
-0.001,-0.004,1.001,1.099,0.732,2.930
-0.005,-0.017,1.005,0.793,0.732,3.174

