aX,aY,aZ,gX,gY,gZ
0.026,0.733,1.002,-0.549,1.221,13.672
0.009,0.707,1.003,-1.038,1.221,10.986
-0.142,0.795,0.997,-0.122,1.099,-9.338
-0.174,0.811,0.997,1.160,1.221,-29.175
-0.197,1.021,0.994,1.160,1.282,-43.396
-0.177,1.208,0.988,1.648,1.221,-44.250
-0.121,1.242,1.000,1.343,1.404,-33.752
-0.048,1.204,0.992,0.854,1.282,-23.499
-0.029,1.129,0.996,0.610,1.465,-23.743
-0.017,1.035,0.996,0.000,1.709,-36.987
-0.016,0.997,1.005,-0.977,1.709,-57.800
-0.023,0.802,1.002,-0.916,2.075,-78.186
-0.085,0.851,0.991,-3.052,3.662,-93.506
-0.140,0.732,0.991,-1.404,2.747,-102.966
-0.125,0.187,0.989,2.075,1.404,-108.704
-0.210,-0.225,0.992,2.686,2.075,-118.408
-0.314,-0.536,1.014,-1.709,1.953,-129.639
-0.330,-0.743,1.019,1.465,1.587,-133.240
-0.331,-0.829,0.984,9.644,0.427,-124.756
-0.291,-0.861,0.976,11.169,0.732,-104.614
-0.223,-0.771,0.988,4.700,0.916,-75.134
-0.111,-0.790,0.998,-1.526,2.258,-40.894
-0.058,-0.858,1.015,-3.967,2.686,-17.517
0.006,-0.840,1.016,-2.441,1.892,-12.146
0.069,-0.767,0.999,1.282,1.404,-14.954
0.109,-0.672,1.000,0.977,1.831,-13.977
0.096,-0.744,0.997,0.305,1.831,-8.423
0.062,-0.783,1.002,0.366,2.075,-3.418
0.049,-0.876,1.003,1.221,2.014,1.343
0.013,-0.853,1.004,1.526,1.404,2.441
-0.031,-0.740,1.002,2.319,1.160,1.587
-0.025,-0.594,1.002,2.686,0.916,4.700
-0.036,-0.524,1.000,2.136,0.488,14.099
-0.024,-0.495,1.001,1.648,0.488,25.269
-0.028,-0.413,1.001,1.099,0.305,33.508
-0.053,-0.397,1.000,0.977,-0.061,37.292
-0.097,-0.332,1.000,0.977,0.183,35.828
-0.111,-0.217,1.001,0.854,0.244,31.677
-0.149,-0.225,1.001,0.610,0.122,27.161
-0.208,-0.300,0.999,0.671,0.427,19.592
-0.057,-0.065,0.997,0.244,0.671,6.348
-0.028,-0.022,0.999,-0.061,0.793,-0.061
-0.025,-0.019,1.001,0.305,0.854,-0.244
-0.026,-0.022,1.001,0.854,0.977,-0.244
-0.026,-0.022,1.000,0.916,0.854,-0.122
-0.026,-0.021,0.997,0.732,0.977,-0.305
-0.025,-0.020,0.997,0.854,1.160,-0.366
-0.023,-0.020,1.001,0.366,1.038,-0.122
-0.025,-0.020,1.001,0.427,0.916,-0.183
-0.023,-0.019,1.000,0.549,0.916,-0.305
-0.024,-0.018,0.999,0.732,0.671,-0.244
-0.024,-0.018,1.000,0.977,0.916,-0.183
-0.022,-0.018,1.001,1.099,0.977,-0.061
-0.022,-0.019,1.000,0.977,0.793,0.000
-0.022,-0.019,0.999,1.160,0.732,-0.183
-0.022,-0.020,0.998,1.099,0.671,-0.122
-0.022,-0.021,1.000,1.160,0.671,-0.061
-0.024,-0.023,1.002,0.916,0.793,0.000
-0.025,-0.022,1.001,0.916,0.916,-0.244
-0.025,-0.022,1.000,0.793,0.916,-0.244
-0.026,-0.020,0.999,0.793,0.732,-0.244
-0.027,-0.019,1.000,0.732,0.671,-0.122
-0.027,-0.018,1.000,0.854,0.854,-0.305
-0.027,-0.017,1.001,0.977,0.732,-0.427
-0.027,-0.016,1.000,1.038,0.793,-0.122
-0.027,-0.016,1.000,0.977,0.671,-0.061
-0.026,-0.018,1.000,0.916,0.732,-0.122
-0.025,-0.018,1.000,0.977,0.854,-0.122
-0.024,-0.019,1.000,0.854,0.610,0.000
-0.022,-0.021,1.001,0.977,0.732,-0.061
-0.022,-0.021,1.000,1.099,0.916,-0.061
-0.021,-0.021,1.001,1.221,0.916,-0.061
-0.021,-0.021,1.000,0.977,0.916,-0.061
-0.021,-0.020,1.000,0.854,0.793,-0.061
-0.022,-0.020,1.000,0.732,0.916,-0.244
-0.023,-0.019,1.001,0.732,0.916,-0.122
-0.024,-0.018,1.000,0.916,0.916,-0.061
-0.026,-0.017,1.001,1.160,0.854,-0.183
-0.026,-0.017,1.000,1.038,0.671,-0.244
-0.027,-0.018,1.000,0.854,0.793,-0.122
-0.027,-0.019,1.000,0.793,0.793,-0.122
-0.026,-0.018,1.001,0.854,0.732,-0.122
-0.026,-0.018,1.000,0.916,0.854,-0.122
-0.026,-0.020,1.000,1.038,0.854,-0.244
-0.024,-0.020,1.001,1.099,0.793,-0.122
-0.024,-0.020,1.000,1.038,0.732,-0.122
-0.023,-0.020,1.000,1.221,0.854,-0.183
-0.021,-0.019,1.001,1.160,0.916,-0.061
-0.022,-0.019,1.000,1.221,0.854,-0.061
-0.021,-0.019,1.000,1.160,0.671,0.000
-0.022,-0.018,1.000,1.038,0.854,-0.305
-0.024,-0.018,1.000,1.099,0.854,-0.061
-0.025,-0.018,1.001,1.160,0.732,-0.061
-0.025,-0.019,1.000,1.099,0.854,-0.183
-0.026,-0.019,1.000,1.099,0.793,-0.183
-0.027,-0.019,1.000,1.099,0.732,-0.244
-0.027,-0.020,1.001,1.099,0.793,-0.183
-0.027,-0.020,1.001,1.160,0.916,-0.122
-0.026,-0.020,1.000,1.160,0.916,-0.183
-0.026,-0.020,1.000,1.038,0.671,-0.183
-0.025,-0.019,1.000,1.160,0.854,-0.122
-0.024,-0.018,1.000,1.282,0.854,-0.244
-0.024,-0.017,1.000,1.343,0.793,-0.183
-0.023,-0.018,1.000,1.038,0.916,-0.122
-0.023,-0.018,1.001,0.977,0.732,-0.244
-0.022,-0.019,1.001,0.854,0.671,-0.183
-0.023,-0.019,1.001,0.916,0.916,-0.122
-0.023,-0.020,1.000,1.038,0.793,-0.061
-0.023,-0.019,1.000,1.160,0.671,-0.183
-0.023,-0.021,1.001,1.099,0.793,-0.183
-0.023,-0.021,1.001,1.160,0.854,-0.244
-0.024,-0.021,1.000,1.343,0.916,-0.183
-0.025,-0.020,1.000,1.221,0.854,-0.244
-0.026,-0.019,1.001,1.160,0.977,-0.122
-0.026,-0.019,1.000,0.977,0.793,-0.244
-0.026,-0.018,1.000,1.160,0.610,-0.122
-0.026,-0.017,1.000,1.038,0.793,-0.122
-0.026,-0.018,1.001,0.916,0.916,-0.183
-0.025,-0.019,1.000,1.099,0.793,-0.122

-0.457,2.423,0.988,-0.305,0.671,23.743
0.058,1.903,1.003,-0.977,-0.122,70.557
0.164,2.066,1.019,-4.028,0.183,87.097
0.030,2.531,1.021,-11.230,0.549,92.468
0.316,2.132,1.069,-26.123,1.526,107.239
0.459,1.626,0.980,-52.002,3.235,100.952
0.391,1.225,0.818,-57.739,3.540,70.618
0.179,0.746,0.769,-23.010,2.258,12.146
0.102,0.552,0.903,32.104,-0.610,-62.195
0.180,0.353,1.121,78.308,-2.625,-129.761
0.201,-0.562,1.053,60.303,-1.831,-170.532
-0.299,-0.157,1.014,10.620,2.014,-180.786
-0.446,-0.852,1.020,3.296,1.709,-150.391
-0.817,-1.358,1.024,1.282,1.709,-115.051
-0.580,-1.138,0.995,5.188,1.648,-88.928
-0.145,-0.887,1.004,3.967,1.282,-53.406
-0.006,-0.837,1.004,4.578,0.488,-18.433
0.104,-1.087,0.998,2.563,0.000,6.470
0.042,-1.309,1.013,-1.038,0.427,13.672
-0.020,-1.265,1.005,-1.831,0.916,8.240
-0.025,-1.128,1.007,-0.427,0.610,5.798
-0.097,-1.067,1.007,0.793,0.122,15.808
-0.179,-0.932,1.004,1.282,-0.122,33.081
-0.163,-0.727,1.007,0.732,0.061,52.795
-0.154,-0.577,1.002,0.977,0.000,69.458
-0.134,-0.591,1.003,0.366,-0.122,77.148
-0.136,-0.325,1.003,0.122,0.183,68.665
-0.155,-0.070,1.001,0.671,0.183,54.443
-0.185,-0.079,1.002,0.793,0.305,41.016
-0.161,0.005,1.004,0.366,0.732,22.949
-0.134,0.029,1.001,0.732,1.038,5.554
-0.087,-0.014,1.003,0.671,1.221,-7.202
-0.079,-0.075,0.998,0.610,1.404,-18.250
-0.067,-0.033,1.001,0.854,1.404,-26.367
-0.040,-0.068,1.001,0.854,1.343,-28.442
-0.054,-0.052,1.001,0.732,1.404,-28.625
-0.086,-0.002,1.002,0.488,1.709,-29.968
-0.085,0.061,1.001,0.671,1.648,-28.442
-0.083,0.087,1.001,0.671,1.587,-21.973
-0.057,0.087,1.000,0.854,1.770,-12.634
-0.032,0.056,1.002,1.099,1.465,-6.104
-0.022,0.066,1.000,1.038,1.343,-4.211
-0.002,0.068,1.001,1.099,1.221,-4.578
0.032,-0.062,1.003,1.099,1.160,-4.700
0.064,-0.105,1.005,1.404,1.099,-6.104
0.069,-0.108,1.001,1.404,1.038,-8.911
0.048,-0.130,1.002,1.709,1.221,-11.841
0.044,-0.086,1.001,1.770,1.343,-14.648
0.045,-0.087,1.000,1.526,1.038,-14.282
0.049,-0.153,1.003,1.526,1.038,-11.963
0.038,-0.197,1.004,1.343,0.977,-10.498
0.019,-0.193,1.001,1.343,1.038,-10.864
-0.010,-0.147,1.001,1.526,1.160,-9.521
-0.023,-0.171,1.004,1.221,1.160,-4.944
-0.024,-0.144,1.002,0.793,0.977,2.563
-0.041,-0.136,1.003,0.732,0.854,9.460
-0.024,-0.094,1.002,0.610,0.671,13.733
-0.046,-0.160,1.002,0.977,0.549,13.550
-0.028,-0.175,1.001,1.038,0.610,10.376
-0.037,-0.241,1.001,0.916,0.610,7.263
-0.038,-0.131,1.001,1.099,0.732,4.333
-0.026,-0.027,1.001,1.038,0.671,0.610
-0.024,-0.021,1.001,1.099,0.854,-0.305
-0.023,-0.012,1.004,0.854,0.854,-0.305
-0.023,-0.013,1.001,1.221,0.793,-0.122
-0.022,-0.012,1.001,0.977,0.610,-0.061
-0.022,-0.015,1.001,0.916,0.732,-0.244
-0.022,-0.016,1.001,0.977,0.854,-0.305
-0.023,-0.019,1.001,0.977,0.854,-0.183
-0.025,-0.022,1.002,0.977,0.732,-0.183
-0.024,-0.023,1.001,1.099,0.977,-0.122
-0.026,-0.023,1.001,0.793,0.732,-0.122
-0.027,-0.022,1.001,0.854,0.732,-0.122
-0.026,-0.020,1.001,0.793,0.854,-0.122
-0.027,-0.018,1.001,0.732,0.671,0.000
-0.027,-0.017,1.003,0.732,0.671,-0.183
-0.026,-0.016,1.001,0.732,0.854,-0.061
-0.025,-0.014,1.001,0.671,0.854,-0.183
-0.025,-0.014,1.001,0.854,0.732,-0.183
-0.024,-0.016,1.001,1.038,0.793,-0.244
-0.022,-0.018,1.001,0.916,0.549,-0.305
-0.022,-0.018,1.002,0.732,0.671,-0.305
-0.023,-0.021,1.001,0.977,0.854,-0.122
-0.022,-0.022,1.001,0.854,0.732,-0.183
-0.022,-0.021,1.001,0.854,0.977,-0.183
-0.022,-0.022,1.001,0.916,1.038,-0.183
-0.023,-0.020,1.001,0.793,0.854,-0.122
-0.026,-0.019,1.002,0.793,0.732,-0.244
-0.026,-0.016,1.001,0.977,0.854,-0.183
-0.026,-0.016,1.001,1.038,0.671,-0.122
-0.027,-0.014,1.001,0.854,0.671,-0.244
-0.026,-0.015,1.001,0.793,0.427,-0.244
-0.025,-0.017,1.001,0.977,0.671,-0.183
-0.026,-0.018,1.001,0.977,0.610,-0.122
-0.024,-0.019,1.001,1.099,0.671,-0.061
-0.022,-0.021,1.001,1.160,0.732,-0.183
-0.022,-0.021,1.002,0.916,0.732,-0.122
-0.021,-0.021,1.001,0.977,0.793,-0.122
-0.022,-0.020,1.001,1.038,0.488,-0.183
-0.022,-0.019,1.001,0.916,0.549,-0.183
-0.023,-0.018,1.001,0.916,0.671,-0.183
-0.023,-0.016,1.001,0.793,0.854,-0.244
-0.025,-0.016,1.001,0.793,0.732,-0.122
-0.026,-0.016,1.001,0.977,0.793,-0.244
-0.027,-0.016,1.002,0.916,0.854,-0.244
-0.026,-0.017,1.001,0.793,0.671,-0.122
-0.026,-0.017,1.001,0.977,0.854,0.000
-0.028,-0.018,1.001,0.977,0.854,-0.183
-0.027,-0.020,1.001,0.916,0.854,-0.305
-0.025,-0.020,1.001,0.977,0.671,-0.244
-0.024,-0.021,1.001,1.038,0.854,-0.366
-0.024,-0.019,1.001,0.916,0.854,-0.122
-0.023,-0.021,1.001,1.038,0.854,-0.061
-0.021,-0.018,1.002,0.854,0.854,-0.061
-0.022,-0.017,1.001,0.854,0.793,-0.183
-0.022,-0.016,1.001,0.977,0.671,-0.061
-0.022,-0.013,1.001,0.793,0.793,-0.122
-0.022,-0.016,1.001,1.038,0.977,-0.244
-0.024,-0.016,1.001,1.099,0.793,-0.183

0.039,1.541,1.001,2.625,-0.366,70.862
0.146,1.722,0.994,2.930,-0.366,74.463
0.183,1.694,0.990,3.479,-0.305,76.599
0.155,1.398,0.997,1.953,-0.061,60.547
0.045,1.084,1.000,-0.916,0.793,32.288
-0.086,0.637,1.007,-1.465,0.916,-4.272
-0.087,0.452,1.003,0.305,1.953,-50.171
-0.093,0.400,0.997,0.916,3.052,-92.834
-0.149,0.206,0.995,1.343,3.052,-116.882
-0.244,-0.009,1.006,1.282,2.197,-121.765
-0.222,-0.291,1.008,1.587,2.075,-112.915
-0.279,-0.579,1.000,2.808,2.075,-98.938
-0.128,-0.651,0.999,3.662,2.197,-83.496
-0.076,-0.784,0.998,4.578,2.319,-67.444
-0.003,-0.775,1.012,1.892,2.441,-51.819
0.067,-0.776,1.010,-1.099,1.404,-35.645
0.050,-0.905,1.014,-3.662,1.282,-20.142
0.028,-1.001,1.001,-1.587,0.793,-10.254
-0.027,-1.030,1.014,0.122,0.488,-7.141
-0.077,-1.080,0.999,1.831,0.244,-7.812
-0.015,-0.821,1.007,1.221,0.793,-8.179
-0.078,-0.702,1.002,1.587,0.793,-3.479
-0.057,-0.828,1.002,1.526,0.793,5.432
-0.057,-0.801,1.004,1.282,0.671,7.385
-0.078,-0.577,1.007,1.709,0.427,3.418
-0.096,-0.416,0.999,1.587,0.427,5.554
-0.066,-0.397,1.002,1.587,0.732,14.160
-0.066,-0.414,1.005,1.465,0.427,21.667
-0.062,-0.395,1.002,1.404,0.488,24.048
-0.056,-0.342,1.001,1.160,0.549,20.264
-0.055,-0.318,1.002,1.038,0.427,12.939
-0.085,-0.281,1.001,0.916,0.610,4.395
-0.083,-0.249,1.000,0.671,0.854,0.244
-0.076,-0.200,1.001,0.122,0.916,2.380
-0.069,-0.177,1.002,0.061,0.916,8.240
-0.097,-0.306,1.002,0.061,0.854,11.719
-0.067,-0.357,1.003,-0.122,0.793,9.583
-0.025,-0.032,1.001,0.732,0.610,2.136
-0.065,0.165,0.999,0.793,0.488,0.610
0.016,-0.189,1.004,-1.770,1.160,3.723
-0.019,-0.044,1.001,-0.732,1.160,1.343
-0.027,-0.029,1.001,0.854,0.977,-0.366
-0.027,-0.028,1.001,0.488,0.854,-0.244
-0.028,-0.025,1.001,0.793,0.854,-0.183
-0.026,-0.023,1.001,0.793,0.793,-0.122
-0.027,-0.017,1.001,0.732,0.732,-0.183
-0.026,-0.015,1.001,0.793,0.793,-0.183
-0.025,-0.012,1.001,0.916,0.793,-0.244
-0.024,-0.012,1.001,0.854,0.732,-0.061
-0.023,-0.012,1.000,0.793,0.610,-0.122
-0.022,-0.014,1.001,0.793,0.732,-0.122
-0.023,-0.016,1.001,0.793,0.793,-0.122
-0.024,-0.017,1.001,0.671,0.793,-0.122
-0.025,-0.020,1.001,0.793,0.916,-0.366
-0.025,-0.021,1.001,0.610,0.793,-0.305
-0.025,-0.023,1.001,0.671,0.793,-0.366
-0.026,-0.023,1.001,0.854,0.916,-0.244
-0.026,-0.023,1.001,0.854,0.854,-0.183
-0.026,-0.022,1.001,0.854,0.671,-0.244
-0.025,-0.019,1.001,1.038,0.977,-0.122
-0.025,-0.017,1.002,0.916,0.793,-0.122
-0.024,-0.015,1.001,0.854,0.610,-0.244
-0.022,-0.013,1.001,0.793,0.793,-0.183
-0.022,-0.012,1.001,0.732,0.732,-0.244
-0.022,-0.014,1.000,0.793,0.916,-0.122
-0.022,-0.016,1.001,0.977,0.977,-0.122
-0.023,-0.018,1.001,0.916,0.732,-0.244
-0.024,-0.020,1.001,0.854,0.732,-0.244
-0.025,-0.021,1.001,0.977,0.916,-0.183
-0.026,-0.021,1.001,0.916,0.671,-0.122
-0.027,-0.021,1.001,1.099,0.732,-0.244
-0.026,-0.019,1.001,1.099,0.916,-0.183
-0.027,-0.018,1.001,1.038,0.854,-0.183
-0.027,-0.016,1.001,1.038,0.610,-0.183
-0.026,-0.015,1.001,0.977,0.732,-0.244
-0.025,-0.015,1.001,1.038,0.732,-0.366
-0.024,-0.016,1.002,0.916,0.732,-0.183
-0.022,-0.015,1.001,1.099,0.671,0.000
-0.022,-0.016,1.001,0.977,0.671,0.000
-0.021,-0.017,1.001,0.793,0.854,-0.183
-0.023,-0.018,1.001,0.854,0.732,-0.122
-0.023,-0.018,1.001,0.977,0.671,-0.183
-0.024,-0.020,1.002,1.038,0.732,-0.122
-0.024,-0.020,1.001,1.221,0.793,0.000
-0.024,-0.019,1.001,1.160,0.793,-0.061
-0.026,-0.018,1.001,1.099,0.671,-0.305
-0.026,-0.017,1.001,1.099,0.916,-0.244
-0.026,-0.016,1.001,1.160,0.793,-0.244
-0.025,-0.017,1.003,1.160,0.671,-0.305
-0.025,-0.017,1.001,1.160,0.977,-0.122
-0.024,-0.017,1.001,1.099,0.854,-0.122
-0.023,-0.017,1.002,0.916,0.732,-0.244
-0.023,-0.019,1.001,0.977,0.671,-0.244
-0.022,-0.019,1.001,0.977,0.671,-0.061
-0.024,-0.019,1.003,0.916,0.610,-0.061
-0.023,-0.018,1.001,0.916,0.671,-0.061
-0.023,-0.018,1.001,1.038,0.854,-0.061
-0.025,-0.025,1.001,1.404,0.793,-0.061
-0.025,-0.018,1.001,1.526,0.793,-0.122
-0.025,-0.017,1.002,1.038,0.610,-0.061
-0.026,-0.016,1.002,1.099,0.793,-0.122
-0.026,-0.015,1.001,1.282,0.732,-0.122
-0.026,-0.018,1.001,1.038,0.793,-0.183
-0.026,-0.018,1.002,0.854,0.671,-0.244
-0.025,-0.018,1.000,0.793,0.732,-0.122
-0.025,-0.020,1.001,1.038,0.671,-0.183
-0.024,-0.020,1.001,0.916,0.671,-0.183
-0.024,-0.021,1.001,1.099,0.854,-0.183
-0.023,-0.020,1.001,0.977,0.793,-0.183
-0.022,-0.020,1.001,0.854,0.549,-0.122
-0.022,-0.019,1.001,0.977,0.793,-0.183
-0.023,-0.018,1.001,0.977,0.732,-0.122
-0.023,-0.018,1.001,0.977,0.671,-0.122
-0.024,-0.017,1.001,1.160,0.854,-0.183
-0.025,-0.016,1.001,1.160,0.854,-0.305
-0.025,-0.016,1.001,1.038,0.793,-0.183
-0.027,-0.017,1.001,1.160,0.671,-0.244
-0.027,-0.016,1.001,0.977,0.793,-0.183
-0.027,-0.018,1.001,0.977,0.732,-0.122

-0.290,1.715,1.000,0.427,-0.427,80.322
-0.233,1.603,1.010,-1.038,-0.732,109.375
-0.327,1.611,1.003,-5.066,-0.793,122.986
-0.265,1.494,1.007,-10.925,-0.366,124.573
-0.139,1.327,0.974,-14.648,0.000,116.760
0.001,1.040,0.939,-10.254,0.183,86.243
0.098,0.765,0.959,3.967,0.610,36.743
-0.003,0.484,1.003,15.320,0.671,-16.724
0.013,0.229,1.049,20.752,0.366,-70.862
0.015,0.286,1.004,15.137,1.587,-117.798
-0.079,0.213,0.999,3.601,3.174,-141.052
-0.094,-0.244,1.000,3.357,2.197,-138.916
0.074,-0.732,1.002,1.892,1.831,-125.916
0.103,-0.765,1.002,0.977,1.953,-111.023
0.201,-0.850,0.999,3.296,2.380,-91.248
0.244,-0.936,0.995,4.883,2.686,-67.505
0.237,-0.984,1.007,2.319,2.441,-47.485
0.149,-1.134,1.014,0.427,1.892,-32.593
0.119,-1.185,1.022,-2.014,0.977,-19.714
0.078,-1.096,1.003,-2.380,0.793,-5.554
0.045,-0.962,1.011,-0.732,0.549,8.728
0.035,-0.784,1.004,0.061,0.122,18.677
-0.012,-0.785,1.004,-0.610,0.183,24.109
-0.020,-0.825,1.008,0.305,0.183,20.447
-0.044,-0.717,1.001,1.709,0.122,4.211
-0.112,-0.476,1.000,1.953,0.366,-12.634
-0.160,-0.333,1.000,1.831,0.549,-19.409
-0.175,-0.280,1.002,1.221,0.671,-15.808
-0.158,-0.269,1.000,0.977,0.549,-6.592
-0.131,-0.249,1.004,0.916,0.732,0.916
-0.106,-0.207,1.004,1.160,0.793,2.808
-0.080,-0.155,1.000,1.099,0.854,-1.709
-0.077,-0.127,1.000,0.977,1.099,-8.240
-0.073,-0.092,1.001,0.854,1.343,-13.733
-0.068,-0.133,1.002,0.488,1.343,-18.066
-0.079,-0.108,1.002,0.488,1.404,-22.705
-0.085,-0.066,1.002,0.366,1.587,-25.818
-0.086,-0.035,1.002,0.427,1.587,-25.269
-0.072,-0.002,1.000,0.488,1.404,-23.132
-0.061,-0.024,1.000,0.854,1.465,-20.935
-0.042,-0.047,1.001,0.916,1.526,-20.020
-0.035,-0.059,1.002,1.343,1.404,-19.775
-0.029,-0.041,1.001,1.587,1.221,-17.822
-0.000,-0.089,1.002,1.587,1.282,-13.672
0.015,-0.125,1.001,1.343,1.221,-10.864
0.024,-0.143,1.001,1.953,1.221,-10.254
0.028,-0.168,1.001,1.526,0.916,-10.254
0.029,-0.198,1.001,1.343,1.038,-10.315
0.027,-0.209,1.000,1.160,0.916,-9.644
-0.004,-0.240,1.001,0.732,1.099,-7.935
-0.025,-0.199,1.001,0.427,1.099,-6.104
-0.021,-0.029,1.000,0.854,0.916,-2.380
-0.020,-0.018,1.001,0.977,0.793,-0.244
-0.021,-0.019,1.001,0.610,0.854,-0.122
-0.024,-0.021,1.001,0.488,1.099,-0.305
-0.025,-0.023,1.002,0.610,0.916,-0.244
-0.027,-0.024,1.002,0.610,0.854,-0.244
-0.029,-0.023,1.001,0.854,0.977,-0.061
-0.029,-0.022,1.001,0.793,0.977,-0.122
-0.029,-0.021,1.001,0.916,0.977,-0.244
-0.028,-0.018,1.001,0.977,0.854,-0.183
-0.026,-0.016,1.002,1.038,0.977,-0.122
-0.025,-0.016,1.001,1.038,0.916,-0.183
-0.023,-0.013,1.001,1.038,1.038,0.000
-0.022,-0.013,1.001,1.160,0.977,-0.061
-0.021,-0.015,1.001,1.038,0.977,-0.061
-0.020,-0.017,1.001,0.977,1.160,-0.244
-0.019,-0.019,1.001,0.793,1.038,-0.244
-0.020,-0.023,1.003,0.793,0.916,-0.122
-0.022,-0.023,1.002,1.160,1.038,-0.183
-0.023,-0.023,1.002,0.977,0.854,-0.183
-0.026,-0.023,1.001,1.038,0.793,-0.122
-0.026,-0.022,1.001,1.038,0.793,-0.244
-0.028,-0.020,1.001,1.099,0.610,-0.427
-0.028,-0.017,1.003,1.099,0.549,-0.427
-0.028,-0.015,1.001,1.160,0.610,-0.366
-0.027,-0.015,1.001,1.099,0.732,-0.244
-0.026,-0.014,1.001,0.854,0.793,-0.366
-0.024,-0.016,1.001,0.854,0.916,-0.122
-0.024,-0.017,1.001,0.854,0.854,-0.061
-0.023,-0.019,1.003,0.916,0.793,-0.061
-0.023,-0.020,1.001,0.977,0.916,-0.122
-0.023,-0.022,1.001,1.038,0.854,-0.244
-0.023,-0.022,1.001,1.038,0.732,-0.305
-0.023,-0.022,1.001,1.038,0.793,-0.305
-0.024,-0.021,1.002,0.854,0.610,-0.183
-0.024,-0.020,1.001,0.854,0.793,-0.122
-0.024,-0.018,1.001,1.099,0.793,-0.122
-0.024,-0.017,1.001,1.160,0.671,-0.183
-0.025,-0.015,1.001,1.099,0.732,-0.305
-0.024,-0.016,1.001,0.977,0.610,-0.366
-0.024,-0.016,1.001,0.977,0.732,-0.366
-0.025,-0.016,1.001,0.916,0.732,-0.244
-0.024,-0.018,1.001,1.099,0.732,-0.183
-0.024,-0.018,1.001,1.099,0.732,-0.122
-0.026,-0.020,1.002,0.977,0.671,-0.244
-0.024,-0.021,1.001,1.038,0.732,-0.183
-0.025,-0.021,1.001,0.916,0.793,-0.122
-0.025,-0.021,1.001,0.854,0.671,-0.122
-0.025,-0.020,1.001,0.854,0.732,-0.122
-0.025,-0.018,1.001,0.916,0.793,-0.122
-0.024,-0.017,1.001,0.854,0.671,-0.183
-0.025,-0.016,1.001,0.977,0.732,-0.183
-0.025,-0.016,1.001,0.916,0.671,-0.244
-0.022,-0.017,1.001,1.038,0.671,-0.122
-0.023,-0.018,1.001,1.160,0.793,-0.183
-0.023,-0.018,1.001,1.160,0.793,-0.183
-0.023,-0.020,1.001,0.977,0.488,-0.305
-0.025,-0.021,1.002,0.916,0.549,-0.183
-0.024,-0.020,1.001,0.977,0.732,-0.244
-0.025,-0.020,1.001,0.977,0.793,-0.183
-0.024,-0.021,1.001,1.099,0.793,-0.183
-0.025,-0.019,1.001,0.977,0.854,-0.183
-0.025,-0.018,1.001,0.916,0.793,-0.122
-0.025,-0.017,1.001,1.038,0.610,-0.244
-0.025,-0.017,1.001,0.916,0.610,-0.305
-0.026,-0.016,1.001,1.099,0.793,-0.305
-0.026,-0.018,1.001,1.099,0.732,-0.244
-0.024,-0.017,1.001,1.099,0.671,0.061

0.080,1.591,0.995,1.404,-0.244,70.129
0.117,1.553,0.995,1.282,0.000,61.218
0.077,1.556,1.000,0.183,0.366,36.987
0.047,1.405,0.995,0.610,0.549,15.869
0.039,1.117,0.989,0.793,0.854,-6.348
-0.011,0.794,0.991,0.977,1.343,-35.522
-0.069,0.621,1.019,-0.427,1.831,-69.824
-0.127,0.448,1.000,0.427,2.258,-99.060
-0.198,0.387,0.996,-0.610,2.625,-114.990
-0.261,0.090,1.000,1.526,1.648,-115.540
-0.354,-0.165,1.005,2.319,2.075,-104.736
-0.325,-0.354,1.020,-3.784,1.099,-86.609
-0.199,-0.452,1.008,-1.831,0.977,-57.739
-0.094,-0.634,0.993,4.456,0.122,-25.757
-0.079,-0.842,0.993,5.981,0.183,-6.775
-0.028,-0.923,1.003,3.967,0.061,-9.827
0.034,-1.013,1.015,-0.610,0.427,-22.522
0.057,-0.980,1.013,-3.174,1.221,-36.865
0.028,-0.971,1.008,-0.122,0.671,-48.035
-0.028,-1.009,1.006,2.502,0.610,-51.270
-0.039,-0.911,1.006,3.540,0.610,-44.922
-0.089,-0.844,1.003,2.991,0.610,-30.090
-0.090,-0.833,1.004,1.831,0.732,-12.512
-0.082,-0.804,1.007,2.563,0.610,-0.793
-0.060,-0.663,1.005,3.174,0.488,5.066
-0.048,-0.525,1.008,2.686,0.549,7.629
-0.056,-0.531,0.998,1.892,0.610,8.484
-0.067,-0.521,1.004,1.282,0.671,5.066
-0.077,-0.478,1.009,1.404,0.549,-1.160
-0.078,-0.433,0.997,0.977,0.732,-5.371
-0.076,-0.377,1.003,0.732,0.977,-6.409
-0.092,-0.376,1.001,0.488,0.916,-4.883
-0.108,-0.351,1.002,0.061,0.977,-3.418
-0.128,-0.265,1.001,-0.061,1.221,-3.357
-0.118,-0.186,1.002,-0.793,1.282,-1.465
-0.092,-0.231,1.002,-1.282,1.282,3.052
-0.095,-0.285,1.003,-1.526,1.465,5.615
-0.080,-0.372,1.004,-2.075,1.404,4.639
-0.030,-0.073,1.001,-1.099,1.343,1.587
-0.029,0.016,1.002,1.160,0.977,0.122
-0.031,-0.097,1.001,-0.549,1.099,1.221
-0.026,-0.041,1.001,-1.465,1.221,0.977
-0.029,-0.026,1.001,-0.061,0.916,-0.366
-0.027,-0.022,1.001,-0.122,1.038,-0.366
-0.027,-0.016,1.001,0.000,0.977,-0.244
-0.025,-0.013,1.001,1.038,0.977,-0.061
-0.023,-0.012,1.002,1.587,0.732,0.000
-0.021,-0.010,1.000,1.282,0.793,0.061
-0.021,-0.010,1.001,1.404,0.732,-0.122
-0.021,-0.010,1.001,1.038,0.671,-0.183
-0.021,-0.013,1.001,1.038,0.793,-0.244
-0.023,-0.014,1.001,1.221,1.038,-0.122
-0.023,-0.016,1.001,1.099,0.854,-0.183
-0.024,-0.019,1.001,1.099,0.732,-0.244
-0.025,-0.021,1.001,1.221,0.671,-0.122
-0.026,-0.022,1.001,1.343,0.671,-0.305
-0.027,-0.023,1.001,1.343,0.549,-0.122
-0.027,-0.021,1.001,1.465,0.671,-0.122
-0.027,-0.020,1.001,1.160,0.854,-0.244
-0.026,-0.017,1.001,1.099,0.793,-0.183
-0.027,-0.015,1.001,0.977,0.732,-0.183
-0.027,-0.014,1.001,0.977,0.671,-0.305
-0.027,-0.013,1.001,0.916,0.732,-0.183
-0.025,-0.012,1.001,1.221,0.977,-0.244
-0.026,-0.014,1.001,0.916,0.854,-0.061
-0.024,-0.015,1.001,0.854,0.793,-0.122
-0.025,-0.018,1.001,0.977,0.732,-0.244
-0.024,-0.020,1.001,0.916,0.732,-0.183
-0.026,-0.021,1.003,0.916,0.732,-0.183
-0.025,-0.022,1.001,0.916,0.916,-0.244
-0.024,-0.020,1.001,0.854,0.793,-0.183
-0.025,-0.018,1.002,0.793,0.854,-0.183
-0.025,-0.017,1.001,0.854,0.793,-0.061
-0.025,-0.015,1.001,0.977,0.854,-0.061
-0.025,-0.015,1.002,1.038,0.732,-0.061
-0.025,-0.014,1.001,1.099,0.793,-0.061
-0.025,-0.014,1.001,0.854,0.732,-0.244
-0.026,-0.015,1.001,0.916,0.732,-0.183
-0.026,-0.016,1.001,0.793,0.916,-0.244
-0.025,-0.017,1.001,0.732,0.793,-0.183
-0.024,-0.018,1.003,0.977,0.732,-0.061
-0.026,-0.019,1.001,1.221,0.732,-0.061
-0.026,-0.019,1.001,1.038,0.671,-0.183
-0.026,-0.019,1.001,1.038,0.732,-0.183
-0.025,-0.017,1.001,0.916,0.793,0.000
-0.025,-0.017,1.000,0.854,0.671,-0.122
-0.023,-0.016,1.003,0.977,0.732,-0.122
-0.024,-0.016,1.001,0.916,0.854,-0.305
-0.024,-0.015,1.000,0.916,0.732,-0.183
-0.024,-0.015,1.001,0.916,0.732,-0.244
-0.025,-0.015,1.001,0.916,0.671,-0.122
-0.025,-0.017,1.002,0.854,0.793,-0.183
-0.025,-0.017,1.001,0.793,0.854,-0.122
-0.026,-0.018,1.000,0.977,0.854,-0.244
-0.026,-0.018,1.001,0.977,0.671,-0.122
-0.027,-0.019,1.002,0.854,0.793,-0.122
-0.027,-0.018,1.001,0.977,0.916,-0.183
-0.027,-0.017,1.001,0.977,0.793,-0.061
-0.026,-0.016,1.000,0.977,0.793,-0.183
-0.027,-0.015,1.001,0.977,0.793,-0.122
-0.025,-0.015,1.001,1.160,0.671,0.000
-0.024,-0.014,1.001,1.160,0.610,-0.183
-0.024,-0.015,1.001,1.160,0.610,-0.244
-0.023,-0.016,1.001,1.160,0.610,-0.183
-0.024,-0.017,1.002,0.977,0.671,-0.244
-0.025,-0.017,1.002,1.221,0.854,-0.122
-0.024,-0.018,1.001,1.221,0.793,-0.244
-0.025,-0.019,1.001,1.160,0.793,-0.122
-0.025,-0.019,1.001,1.099,0.793,-0.122
-0.025,-0.019,1.001,1.160,0.793,-0.183
-0.025,-0.018,1.002,1.038,0.793,-0.122
-0.026,-0.017,1.001,1.038,0.854,0.000
-0.026,-0.016,1.001,1.038,0.854,0.000
-0.027,-0.015,1.001,1.099,0.732,-0.061
-0.026,-0.015,1.002,1.160,0.610,-0.244
-0.026,-0.015,1.001,1.221,0.793,-0.305
-0.026,-0.016,1.001,0.977,0.916,-0.244
-0.026,-0.017,1.001,1.038,0.854,-0.122
-0.026,-0.017,1.001,1.160,0.854,-0.061

0.019,1.200,1.001,-1.648,0.488,52.368
-0.019,1.370,1.000,-0.977,0.061,73.059
-0.027,1.459,0.996,-0.305,-0.061,68.970
-0.041,1.490,0.999,0.122,0.122,41.992
0.003,1.849,0.992,0.244,0.488,-4.944
0.161,2.112,0.992,0.549,0.977,-46.753
0.193,1.783,0.989,1.282,1.160,-71.594
0.045,1.287,0.992,1.892,1.648,-89.966
0.013,0.901,1.000,-0.793,2.197,-110.901
0.037,0.692,1.011,-1.465,2.380,-124.634
-0.008,0.613,0.999,-2.441,2.625,-119.873
-0.090,-0.013,0.997,0.305,1.892,-101.379
-0.280,-0.739,1.000,3.601,2.014,-86.365
-0.373,-1.060,1.020,-2.319,1.465,-83.374
-0.441,-1.329,1.019,-5.432,1.343,-67.932
-0.315,-1.010,1.007,-4.395,1.282,-38.086
-0.239,-1.220,1.009,-0.671,0.488,-2.563
-0.280,-1.427,1.004,-0.671,0.122,15.625
-0.229,-1.525,1.020,0.549,0.061,9.827
-0.157,-1.266,1.009,1.038,0.427,4.578
-0.112,-1.304,1.009,3.479,1.160,10.498
-0.067,-1.025,1.010,3.479,0.793,20.630
-0.051,-0.972,1.015,3.113,0.610,27.954
-0.097,-0.882,1.010,1.099,0.671,30.334
-0.116,-0.750,1.012,0.427,0.732,26.794
-0.088,-0.508,1.005,0.244,0.732,23.560
-0.025,-0.344,1.004,0.244,0.854,24.170
-0.053,-0.366,1.003,0.244,0.732,24.170
-0.078,-0.231,1.003,0.305,0.732,15.015
-0.064,0.012,1.005,0.671,0.671,5.554
-0.090,0.061,1.007,0.793,0.671,9.338
-0.158,0.215,1.001,0.427,0.732,13.733
-0.138,0.190,1.000,0.977,0.977,10.864
-0.122,0.234,1.001,0.977,0.793,7.263
-0.089,0.264,1.000,0.732,0.916,5.981
-0.037,0.170,1.001,0.977,0.793,9.155
0.003,0.112,1.000,1.221,0.732,11.963
0.020,0.087,1.002,1.648,0.916,11.902
0.038,0.016,1.001,2.197,1.160,10.864
0.041,-0.034,1.002,1.953,0.916,10.803
0.031,-0.069,1.002,1.648,0.732,9.583
0.016,-0.087,1.002,1.526,0.854,7.690
0.004,0.016,1.001,1.709,0.916,4.456
0.004,0.039,1.003,2.014,0.977,3.662
-0.010,0.085,1.001,1.587,0.916,4.028
0.003,0.048,1.002,1.282,0.916,3.845
-0.000,0.067,1.001,0.793,0.732,1.648
0.005,0.053,1.001,0.854,0.854,-3.418
0.005,0.047,1.001,0.549,0.977,-9.583
0.010,0.030,1.004,0.549,0.977,-15.808
0.015,-0.021,1.001,0.977,1.099,-19.592
0.026,-0.108,1.003,1.160,1.038,-21.118
-0.001,-0.101,1.001,0.916,0.916,-22.034
-0.001,-0.081,1.000,1.038,1.038,-19.714
0.029,-0.120,1.002,1.587,1.038,-12.329
0.037,-0.141,1.004,1.526,0.916,-5.310
0.030,-0.155,1.001,1.709,1.099,-1.465
0.012,-0.147,1.002,1.465,0.977,-1.343
0.003,-0.121,1.001,1.587,0.854,-3.174
-0.022,-0.099,1.004,1.648,0.916,-4.944
-0.040,-0.072,1.004,1.709,0.854,-5.432
-0.041,-0.076,1.001,1.343,0.732,-5.188
-0.055,-0.050,1.002,1.282,0.732,-5.310
-0.052,-0.031,1.004,1.404,0.732,-5.371
-0.038,-0.027,1.005,1.160,0.732,-4.028
-0.026,-0.020,1.000,1.038,0.732,-2.075
-0.010,-0.049,1.001,0.732,0.610,-0.488
0.000,-0.136,1.001,0.793,0.610,1.099
-0.004,-0.151,1.001,1.099,0.916,0.977
-0.012,-0.132,1.003,0.854,0.732,0.305
-0.011,-0.089,1.001,0.793,0.671,0.549
-0.029,-0.082,1.002,0.671,0.610,1.038
-0.043,-0.093,1.001,1.038,0.793,-0.244
-0.058,-0.117,1.002,1.343,0.793,-2.991
-0.081,-0.158,1.001,1.526,0.793,-5.005
-0.064,-0.180,1.004,1.648,0.793,-4.700
-0.061,-0.132,1.001,1.038,0.671,-1.892
-0.085,-0.322,1.002,0.793,0.732,2.686
-0.034,-0.062,1.001,0.854,0.793,2.380
-0.028,-0.023,1.001,1.465,0.671,0.427
-0.026,-0.012,1.001,0.732,0.916,0.244
-0.024,-0.017,1.004,0.793,0.671,0.366
-0.023,-0.019,1.001,1.343,0.549,0.000
-0.022,-0.019,1.001,0.854,0.793,-0.244
-0.021,-0.018,1.001,0.793,0.793,-0.244
-0.020,-0.018,1.001,0.854,0.671,-0.122
-0.021,-0.019,1.002,1.038,0.793,-0.061
-0.022,-0.008,1.000,0.977,0.854,-0.183
-0.022,-0.020,1.001,1.404,0.793,0.000
-0.024,-0.016,1.001,0.977,0.793,0.061
-0.024,-0.017,1.002,0.916,0.793,-0.061
-0.026,-0.015,1.002,1.038,0.793,-0.183
-0.027,-0.015,1.001,1.099,0.732,-0.061
-0.027,-0.015,1.001,1.099,0.854,-0.122
-0.026,-0.015,1.001,0.977,0.854,-0.122
-0.026,-0.016,1.001,0.916,0.732,-0.183
-0.026,-0.017,1.001,0.916,0.732,0.061
-0.026,-0.019,1.001,1.099,0.549,-0.061
-0.024,-0.021,1.001,1.221,0.549,0.122
-0.023,-0.020,1.001,1.099,0.793,0.061
-0.024,-0.020,1.002,0.854,0.610,0.000
-0.023,-0.019,1.001,0.854,0.488,-0.122
-0.022,-0.018,1.002,0.732,0.793,0.000
-0.023,-0.017,1.001,0.793,0.671,-0.183
-0.022,-0.017,1.001,0.793,0.793,-0.305
-0.023,-0.016,1.001,0.732,0.916,-0.366
-0.023,-0.015,1.001,0.488,0.732,-0.122
-0.025,-0.015,1.001,0.549,0.793,-0.305
-0.024,-0.015,1.002,0.488,0.793,-0.305
-0.026,-0.016,1.001,0.549,0.732,-0.183
-0.025,-0.016,1.001,0.671,0.732,-0.244
-0.025,-0.017,1.001,0.916,0.916,-0.244
-0.025,-0.018,1.001,0.793,0.793,-0.183
-0.024,-0.018,1.001,0.854,0.610,-0.244
-0.023,-0.018,1.001,1.038,0.732,-0.122
-0.023,-0.016,1.001,0.977,0.610,-0.061
-0.024,-0.017,1.001,0.854,0.732,-0.122
-0.023,-0.016,1.001,1.038,0.854,-0.183
-0.023,-0.016,1.001,0.854,0.854,-0.122

0.045,1.812,0.978,-1.831,0.305,90.332
0.032,1.808,0.997,0.671,-0.061,112.183
-0.018,1.688,0.989,2.991,-0.549,123.108
-0.110,1.559,0.994,6.531,-0.732,106.812
-0.189,1.424,1.009,3.052,-0.061,66.101
-0.180,1.208,0.985,-2.502,0.488,15.381
-0.166,0.873,0.977,-1.282,1.038,-39.063
-0.161,0.646,0.996,0.793,1.892,-92.285
-0.122,0.517,1.013,0.916,2.380,-131.470
-0.155,0.471,1.002,2.075,2.197,-150.208
-0.153,0.166,1.007,-0.610,2.014,-152.466
-0.265,-0.045,1.005,-2.563,2.319,-145.325
-0.335,-0.250,1.016,-2.869,1.404,-131.836
-0.334,-0.473,0.999,-5.859,0.427,-116.577
-0.273,-0.544,1.006,-1.343,1.160,-100.708
-0.216,-0.763,1.000,1.465,1.343,-81.665
-0.233,-0.864,0.981,1.465,1.282,-61.035
-0.126,-0.940,1.015,4.883,1.770,-40.771
-0.073,-1.096,1.029,4.700,2.014,-22.278
-0.054,-1.315,1.029,2.625,1.404,-13.733
-0.026,-1.366,1.014,-0.244,1.892,-14.587
0.002,-1.205,1.011,2.563,1.709,-18.921
0.090,-1.100,1.010,2.625,1.343,-17.212
0.089,-0.899,1.007,1.099,1.282,-9.399
0.075,-0.823,1.010,0.916,1.099,2.197
0.048,-0.778,1.012,1.038,1.038,13.550
0.011,-0.680,1.008,0.000,0.916,18.860
-0.013,-0.501,1.005,-0.732,0.916,18.311
-0.030,-0.334,1.004,-1.160,0.854,15.015
-0.065,-0.279,1.005,-0.549,0.793,12.634
-0.081,-0.259,1.002,0.366,0.793,11.536
-0.063,-0.255,1.004,1.404,0.671,11.597
-0.028,-0.266,1.002,2.075,0.488,13.550
-0.035,-0.329,1.003,2.441,0.671,16.357
-0.047,-0.366,1.004,2.075,0.671,17.944
-0.074,-0.332,1.005,1.587,0.610,19.348
-0.115,-0.310,1.004,1.221,0.610,23.560
-0.089,-0.141,1.002,0.610,0.488,27.771
-0.014,-0.031,1.004,0.305,0.671,27.283
-0.042,-0.062,1.003,-0.366,0.671,24.597
-0.105,-0.145,1.000,-0.854,0.793,18.677
-0.037,-0.033,1.002,0.183,0.854,6.165
-0.029,-0.016,1.002,0.977,0.793,0.122
-0.031,-0.015,1.001,0.671,0.671,-0.183
-0.030,-0.017,1.002,0.793,0.610,-0.122
-0.028,-0.016,1.001,0.732,0.793,0.061
-0.027,-0.017,1.002,0.610,0.854,0.061
-0.024,-0.017,1.001,0.916,0.793,0.061
-0.021,-0.016,1.002,0.854,0.854,-0.244
-0.020,-0.013,1.001,0.916,0.854,-0.122
-0.017,-0.012,1.002,0.793,0.549,-0.061
-0.016,-0.011,1.001,0.916,0.671,0.000
-0.016,-0.010,1.001,0.977,0.977,-0.183
-0.018,-0.011,1.001,0.916,0.732,-0.244
-0.020,-0.013,1.001,0.854,0.671,-0.305
-0.021,-0.016,1.001,1.099,0.793,-0.305
-0.024,-0.016,1.001,1.038,0.732,-0.183
-0.027,-0.017,1.001,1.099,0.977,0.061
-0.029,-0.017,1.001,0.977,0.793,0.000
-0.029,-0.016,1.001,1.099,0.610,-0.122
-0.029,-0.014,1.001,1.099,0.732,-0.305
-0.029,-0.014,1.001,1.160,0.732,-0.305
-0.027,-0.012,1.001,1.038,0.671,-0.305
-0.025,-0.012,1.001,1.221,0.732,-0.061
-0.023,-0.012,1.001,1.160,0.793,-0.183
-0.021,-0.012,1.001,1.099,0.732,-0.061
-0.020,-0.013,1.001,0.977,0.610,-0.183
-0.020,-0.014,1.001,0.977,0.793,-0.244
-0.020,-0.014,1.001,0.977,0.671,-0.244
-0.021,-0.016,1.001,0.793,0.793,-0.122
-0.021,-0.016,1.001,0.793,0.854,-0.244
-0.023,-0.017,1.001,0.854,0.671,-0.244
-0.024,-0.017,1.001,0.916,0.732,-0.244
-0.025,-0.016,1.001,1.099,0.732,-0.244
-0.027,-0.015,1.001,0.977,0.854,-0.305
-0.027,-0.012,1.001,0.793,0.854,-0.183
-0.026,-0.010,1.001,1.099,0.793,-0.366
-0.027,-0.012,1.001,1.465,0.610,-0.244
-0.027,-0.011,1.001,1.343,0.732,-0.244
-0.026,-0.013,1.002,1.099,0.854,-0.366
-0.025,-0.014,1.001,1.038,0.732,-0.549
-0.023,-0.015,1.001,1.221,0.793,-0.549
-0.021,-0.016,1.001,1.099,0.732,-0.366
-0.021,-0.016,1.001,1.038,0.732,-0.488
-0.020,-0.016,1.001,1.160,0.854,-0.427
-0.021,-0.017,1.001,1.160,0.488,-0.366
-0.021,-0.015,1.001,1.099,0.671,-0.122
-0.022,-0.015,1.001,1.099,0.916,-0.183
-0.022,-0.013,1.001,1.099,0.854,-0.366
-0.024,-0.013,1.001,1.160,0.671,-0.305
-0.024,-0.013,1.001,1.221,0.671,-0.488
-0.023,-0.012,1.002,1.038,0.610,-0.305
-0.026,-0.013,1.001,1.160,0.671,-0.244
-0.026,-0.014,1.001,1.282,0.732,-0.427
-0.026,-0.014,1.001,1.038,0.793,-0.183
-0.026,-0.015,1.001,0.916,0.793,-0.244
-0.025,-0.015,1.001,1.099,0.732,-0.305
-0.024,-0.016,1.002,1.160,0.671,-0.305
-0.024,-0.016,1.001,1.221,0.793,-0.061
-0.024,-0.016,1.001,1.099,0.793,-0.061
-0.023,-0.016,1.001,1.099,0.854,-0.122
-0.023,-0.015,1.001,0.854,0.671,0.061
-0.023,-0.014,1.001,0.977,0.732,0.000
-0.024,-0.013,1.001,0.916,0.671,-0.122
-0.023,-0.014,1.002,0.916,0.854,-0.183
-0.024,-0.014,1.001,1.038,0.793,-0.183
-0.024,-0.015,1.001,1.038,0.916,-0.061
-0.024,-0.018,1.001,0.854,0.732,-0.549
-0.024,-0.021,1.001,1.038,0.732,-0.671
-0.024,-0.017,1.001,1.099,0.610,-1.221
-0.023,-0.013,1.001,1.160,0.671,-1.770
-0.023,-0.014,1.001,1.221,0.793,-1.343
-0.023,-0.012,1.001,1.282,0.793,-0.854
-0.022,-0.013,1.002,1.343,0.732,-0.610
-0.024,-0.013,1.001,1.221,0.671,-0.366
-0.025,-0.013,1.001,1.099,0.610,-0.244
-0.024,-0.012,1.001,1.099,0.671,-0.244
-0.024,-0.013,1.001,1.038,0.854,-0.122
-0.024,-0.014,1.001,1.282,0.916,0.061

-0.054,1.502,1.001,2.136,-0.549,83.374
-0.087,1.349,1.011,-1.282,-0.427,78.918
-0.209,1.337,1.003,-6.897,0.183,51.392
-0.035,1.245,1.040,-16.113,1.221,17.090
0.109,1.102,1.008,-29.785,2.380,-12.512
0.026,1.033,0.911,-35.217,1.770,-41.992
-0.029,0.885,0.861,-20.142,0.793,-67.322
0.017,0.454,0.946,6.042,0.122,-87.341
0.059,0.384,0.993,30.334,-0.732,-107.300
0.004,0.445,1.099,43.030,-2.441,-124.451
-0.056,0.291,0.980,26.123,-0.488,-126.404
-0.203,-0.029,1.014,12.085,0.916,-114.929
-0.227,-0.351,1.007,2.014,0.244,-104.004
-0.236,-0.394,0.997,1.831,1.221,-102.661
-0.188,-0.562,1.001,4.456,1.587,-99.792
-0.214,-0.818,1.003,5.676,2.075,-86.731
-0.172,-0.732,1.012,0.488,2.686,-69.031
-0.106,-0.941,1.021,-1.404,2.991,-43.274
-0.053,-1.045,1.013,-3.235,2.075,-32.410
-0.087,-1.217,1.012,-1.770,2.075,-24.475
-0.063,-1.296,1.009,1.160,1.831,-19.653
-0.037,-1.140,1.006,1.892,1.587,-15.564
-0.036,-0.872,1.009,0.916,1.465,-6.165
-0.021,-0.740,1.006,0.671,1.038,9.033
-0.016,-0.715,1.008,0.916,0.977,20.691
-0.006,-0.618,1.010,1.282,0.854,21.240
-0.030,-0.499,1.004,1.587,0.732,12.695
-0.033,-0.331,1.001,2.075,0.977,0.671
-0.059,-0.222,1.004,2.075,0.977,-6.958
-0.084,-0.209,1.004,1.282,0.793,-10.193
-0.093,-0.251,1.006,1.099,0.732,-11.292
-0.080,-0.261,1.005,1.038,0.732,-10.925
-0.061,-0.273,1.004,0.549,0.732,-8.484
-0.049,-0.294,1.004,0.732,0.671,-4.456
-0.027,-0.278,1.002,0.671,0.610,0.305
-0.031,-0.267,1.003,0.671,0.488,5.127
-0.021,-0.285,1.002,0.854,0.427,9.521
-0.020,-0.268,1.003,1.282,0.488,11.414
-0.033,-0.248,1.003,1.160,0.549,10.864
-0.055,-0.206,1.002,1.404,0.610,9.460
-0.078,-0.135,1.004,1.404,0.793,7.507
-0.084,-0.079,1.002,0.793,0.793,7.202
-0.062,-0.005,1.005,0.244,0.793,7.874
-0.074,-0.010,1.004,0.916,0.488,7.446
-0.083,-0.005,0.998,0.549,0.732,6.531
-0.067,-0.041,1.006,1.221,0.610,3.296
-0.072,-0.061,1.004,1.221,0.854,0.671
-0.034,-0.106,1.007,1.099,0.854,0.122
-0.031,-0.213,1.003,1.282,0.549,-0.488
-0.025,-0.273,1.001,0.977,0.793,-0.244
-0.011,-0.126,1.001,1.099,0.549,-0.977
-0.020,-0.027,1.004,1.343,0.671,0.061
-0.020,-0.017,1.001,1.648,0.793,0.183
-0.021,-0.018,1.001,1.221,0.732,0.061
-0.020,-0.019,1.001,1.099,0.671,0.061
-0.021,-0.020,1.001,1.099,0.732,-0.122
-0.023,-0.018,1.001,1.038,0.732,-0.122
-0.026,-0.019,1.003,0.793,0.732,-0.122
-0.028,-0.017,1.001,1.038,0.916,-0.061
-0.028,-0.017,1.001,0.793,0.854,-0.122
-0.028,-0.016,1.001,0.732,0.732,-0.183
-0.026,-0.015,1.001,0.793,0.610,-0.244
-0.025,-0.016,1.001,0.793,0.549,-0.305
-0.024,-0.016,1.003,0.916,0.793,-0.244
-0.023,-0.016,1.001,0.977,0.854,-0.061
-0.021,-0.016,1.001,0.854,0.916,-0.122
-0.022,-0.017,1.001,0.854,0.793,-0.183
-0.020,-0.017,1.001,0.916,0.671,-0.183
-0.021,-0.017,1.001,0.793,0.793,-0.427
-0.023,-0.018,1.002,0.671,0.671,-0.244
-0.023,-0.018,1.001,0.793,0.732,-0.061
-0.025,-0.018,1.001,0.854,0.793,-0.122
-0.026,-0.018,1.001,0.793,0.793,-0.122
-0.027,-0.017,1.001,0.732,0.732,-0.061
-0.027,-0.016,1.001,0.854,0.671,-0.244
-0.026,-0.016,1.002,0.916,0.793,-0.122
-0.026,-0.016,1.001,0.977,0.854,-0.183
-0.024,-0.015,1.001,0.916,0.732,-0.061
-0.023,-0.016,1.001,0.793,0.671,-0.061
-0.022,-0.017,1.001,0.854,0.671,-0.244
-0.022,-0.017,1.001,0.671,0.671,-0.061
-0.022,-0.018,1.001,0.793,0.671,-0.122
-0.021,-0.018,1.001,0.854,0.732,-0.122
-0.021,-0.018,1.001,0.916,0.854,-0.122
-0.021,-0.018,1.001,0.916,0.854,-0.183
-0.022,-0.018,1.001,0.793,0.793,-0.183
-0.023,-0.017,1.001,0.854,0.671,-0.061
-0.025,-0.016,1.001,0.916,0.732,-0.183
-0.025,-0.016,1.001,1.160,0.854,-0.183
-0.026,-0.016,1.001,1.038,0.671,-0.305
-0.026,-0.016,1.001,0.854,0.732,-0.244
-0.026,-0.016,1.001,0.916,0.732,-0.122
-0.024,-0.017,1.001,0.793,0.793,-0.122
-0.023,-0.016,1.001,0.793,0.793,0.000
-0.023,-0.017,1.001,0.793,0.732,-0.061
-0.023,-0.017,1.001,0.793,0.732,-0.244
-0.022,-0.017,1.001,0.793,0.732,-0.244
-0.022,-0.017,1.001,0.671,0.732,-0.305
-0.022,-0.018,1.001,0.916,0.854,-0.183
-0.024,-0.018,1.001,0.793,0.610,-0.244
-0.023,-0.018,1.002,0.854,0.916,-0.244
-0.024,-0.016,1.001,0.977,0.793,-0.366
-0.025,-0.016,1.001,0.916,0.793,-0.183
-0.026,-0.015,1.002,0.916,0.793,-0.061
-0.026,-0.016,1.002,1.038,0.671,-0.122
-0.026,-0.015,1.002,1.099,0.732,-0.305
-0.026,-0.016,1.001,1.099,0.793,-0.183
-0.025,-0.017,1.001,1.282,0.732,-0.244
-0.023,-0.017,1.001,1.160,0.732,-0.305
-0.023,-0.019,1.001,1.099,0.793,-0.244
-0.022,-0.018,1.001,1.160,0.916,-0.183
-0.023,-0.019,1.001,1.099,0.793,-0.305
-0.022,-0.019,1.001,1.038,0.732,-0.488
-0.021,-0.018,1.001,1.221,0.732,-0.488
-0.022,-0.017,1.001,1.282,0.671,-0.427
-0.024,-0.017,1.002,1.221,0.793,-0.305
-0.024,-0.016,1.002,1.160,0.671,-0.427
-0.024,-0.017,1.002,1.160,0.610,-0.366
-0.025,-0.017,1.002,1.099,0.793,-0.366

0.036,1.824,0.996,0.793,-0.305,96.130
-0.020,1.688,0.993,3.235,-0.427,104.431
-0.174,1.586,0.991,4.211,-0.183,88.440
-0.238,1.391,1.000,1.465,0.427,54.138
-0.230,1.027,1.006,-1.038,0.977,12.817
-0.097,0.738,1.006,-2.319,1.221,-36.133
-0.023,0.705,0.995,0.549,2.136,-82.397
-0.053,0.729,0.984,0.610,2.686,-114.990
-0.159,0.253,1.001,0.610,2.075,-127.075
-0.283,0.008,1.005,1.648,2.686,-135.681
-0.370,-0.242,1.016,-3.723,2.014,-138.367
-0.303,-0.181,1.003,-5.493,1.404,-135.559
-0.269,-0.286,0.993,-0.549,1.160,-119.019
-0.260,-0.791,1.001,1.892,1.160,-102.905
-0.231,-0.889,0.992,-1.343,1.221,-97.046
-0.102,-0.774,1.022,3.418,0.427,-89.111
-0.024,-0.925,1.022,1.648,1.099,-63.965
-0.016,-0.992,1.014,0.732,0.671,-42.664
0.030,-1.070,1.001,2.380,0.427,-31.738
0.085,-1.096,1.003,2.197,0.671,-20.508
0.083,-1.081,1.005,1.038,1.160,-9.094
0.065,-1.029,1.006,0.366,0.854,-1.953
0.048,-0.939,1.007,1.404,0.854,4.822
-0.028,-0.782,1.006,2.258,0.793,13.977
-0.048,-0.598,1.005,1.709,0.793,23.071
-0.058,-0.490,1.005,0.977,0.854,29.236
-0.069,-0.359,1.004,0.916,0.671,29.053
-0.083,-0.289,1.003,0.549,0.610,24.109
-0.075,-0.286,1.005,0.854,0.671,17.639
-0.081,-0.240,1.003,0.793,0.671,9.644
-0.071,-0.272,1.003,1.221,0.549,2.930
-0.070,-0.277,1.002,1.160,0.549,-1.465
-0.046,-0.248,1.002,0.916,0.854,-1.892
-0.032,-0.226,1.002,0.854,0.671,1.892
-0.039,-0.266,1.002,0.977,0.488,6.470
-0.040,-0.210,1.002,0.854,0.549,8.728
-0.054,-0.252,1.002,0.610,0.793,10.376
-0.078,-0.363,1.003,-0.061,0.854,11.292
-0.039,-0.117,1.001,0.305,1.038,7.446
-0.024,-0.018,1.002,1.465,0.732,0.549
-0.021,0.077,1.003,1.160,0.793,0.183
-0.049,-0.164,1.004,-0.549,0.977,2.869
-0.023,-0.060,1.001,-1.648,1.343,2.686
-0.030,-0.029,1.000,1.099,0.854,-0.244
-0.030,-0.026,1.001,0.916,0.793,0.000
-0.028,-0.025,1.002,0.610,0.732,-0.183
-0.025,-0.020,1.001,0.671,0.793,-0.244
-0.023,-0.016,1.001,0.977,0.732,-0.305
-0.021,-0.010,1.001,1.526,0.671,-0.122
-0.021,-0.015,1.002,1.709,0.427,-0.061
-0.018,-0.010,1.001,1.587,0.732,-0.122
-0.019,-0.010,1.001,0.977,0.610,-0.122
-0.020,-0.011,1.001,0.854,0.793,-0.366
-0.022,-0.015,1.001,0.732,0.732,-0.305
-0.025,-0.016,1.002,0.671,0.854,-0.244
-0.026,-0.020,1.002,0.793,0.793,-0.244
-0.029,-0.020,1.001,0.977,0.977,-0.244
-0.031,-0.022,1.001,0.854,0.916,-0.305
-0.031,-0.021,1.001,0.793,0.671,-0.061
-0.031,-0.021,1.001,0.916,0.549,-0.061
-0.029,-0.019,1.001,0.977,0.549,-0.061
-0.027,-0.017,1.002,0.793,0.671,-0.061
-0.024,-0.014,1.001,0.977,0.854,0.061
-0.023,-0.013,1.001,0.916,0.732,0.000
-0.021,-0.011,1.001,0.793,0.793,-0.122
-0.019,-0.013,1.001,0.854,0.732,-0.305
-0.018,-0.014,1.001,0.732,0.732,-0.305
-0.019,-0.017,1.003,0.610,0.549,-0.183
-0.021,-0.018,1.002,0.854,0.671,-0.122
-0.023,-0.020,1.001,0.610,0.671,-0.244
-0.026,-0.021,1.001,0.671,0.732,-0.244
-0.028,-0.021,1.001,0.549,0.671,-0.122
-0.030,-0.019,1.001,0.793,0.610,-0.183
-0.030,-0.017,1.003,0.854,0.793,-0.305
-0.030,-0.015,1.001,0.854,0.977,0.000
-0.030,-0.013,1.001,0.732,0.732,-0.122
-0.028,-0.013,1.001,0.793,0.793,-0.244
-0.026,-0.011,1.000,0.854,0.610,-0.183
-0.025,-0.012,1.001,0.854,0.671,-0.061
-0.022,-0.013,1.002,0.977,0.671,-0.122
-0.021,-0.015,1.001,0.916,0.793,-0.122
-0.019,-0.017,1.001,0.854,0.793,-0.183
-0.019,-0.019,1.001,0.732,0.732,-0.183
-0.019,-0.019,1.001,0.671,0.793,-0.122
-0.021,-0.019,1.001,0.793,0.549,-0.183
-0.022,-0.019,1.001,0.671,0.610,-0.244
-0.025,-0.018,1.001,0.854,0.732,-0.183
-0.026,-0.016,1.001,0.977,0.793,-0.305
-0.027,-0.014,1.001,0.854,0.732,-0.183
-0.029,-0.013,1.001,0.977,0.793,-0.061
-0.028,-0.013,1.001,1.038,0.793,-0.183
-0.029,-0.011,1.001,1.099,0.671,-0.122
-0.028,-0.013,1.000,1.221,0.671,-0.122
-0.027,-0.013,1.001,1.038,0.610,-0.183
-0.024,-0.016,1.001,1.099,0.671,-0.183
-0.024,-0.017,1.001,0.977,0.671,-0.122
-0.021,-0.019,1.001,0.854,0.732,-0.244
-0.021,-0.019,1.001,0.916,0.916,-0.244
-0.022,-0.019,1.001,1.099,0.793,-0.244
-0.022,-0.018,1.001,1.038,0.793,0.000
-0.024,-0.017,1.001,0.854,0.793,-0.061
-0.025,-0.015,1.001,0.977,0.732,-0.061
-0.026,-0.014,1.001,0.854,0.793,-0.122
-0.027,-0.014,1.001,0.977,0.732,-0.122
-0.027,-0.014,1.001,0.977,0.916,-0.183
-0.027,-0.013,1.001,1.099,0.977,-0.244
-0.027,-0.015,1.001,1.038,0.732,-0.244
-0.026,-0.016,1.001,1.038,0.671,-0.244
-0.025,-0.017,1.001,1.038,0.793,-0.183
-0.024,-0.017,1.001,1.099,0.732,-0.244
-0.024,-0.019,1.001,1.160,0.732,-0.122
-0.023,-0.018,1.001,1.099,0.610,-0.244
-0.022,-0.017,1.001,1.160,0.732,-0.122
-0.022,-0.016,1.001,1.099,0.793,-0.183
-0.023,-0.016,1.001,1.221,0.732,-0.183
-0.023,-0.015,1.001,1.099,0.671,-0.061
-0.023,-0.015,1.001,0.977,0.793,-0.244
-0.025,-0.014,1.001,1.038,0.671,-0.427
-0.025,-0.015,1.001,1.099,0.732,-0.366

0.066,1.202,0.994,2.441,0.427,19.714
-0.082,1.080,1.000,1.587,1.160,-10.315
-0.150,0.987,0.994,-0.244,1.526,-40.344
-0.173,1.014,1.011,-2.136,1.953,-62.805
-0.205,0.802,1.001,-1.892,2.380,-72.205
-0.221,0.845,0.998,-2.625,2.258,-76.233
-0.285,0.551,0.984,-6.226,1.709,-71.655
-0.307,0.487,0.967,-1.221,2.075,-67.505
-0.256,-0.013,1.025,1.526,0.244,-55.664
-0.209,-0.230,1.002,-0.244,-0.061,-44.617
-0.141,-0.412,0.995,3.967,0.732,-48.523
-0.049,-0.661,0.991,5.554,1.099,-49.500
-0.056,-0.952,1.005,4.272,1.587,-51.697
-0.117,-1.033,1.023,2.014,1.953,-56.824
-0.028,-1.157,1.017,-1.892,2.258,-56.458
-0.079,-1.216,1.015,-1.465,1.953,-55.664
-0.025,-1.166,1.011,1.648,1.587,-52.002
-0.038,-1.037,1.008,1.831,1.770,-42.847
-0.044,-1.018,1.010,1.038,1.770,-31.555
-0.062,-0.958,1.005,0.793,1.648,-21.912
-0.080,-0.869,1.004,2.258,1.343,-15.198
-0.047,-0.727,1.005,2.808,1.038,-7.446
-0.032,-0.676,1.005,2.625,0.854,2.502
-0.003,-0.683,1.010,2.197,0.793,9.460
0.009,-0.658,1.006,1.709,0.732,10.620
0.032,-0.602,1.003,1.587,0.854,9.644
0.023,-0.592,1.007,1.526,0.732,11.169
0.000,-0.593,1.005,1.343,0.610,14.587
-0.033,-0.575,1.003,1.099,0.671,18.677
-0.107,-0.537,1.002,1.160,0.732,22.400
-0.062,-0.152,1.000,1.038,0.610,19.958
-0.045,-0.078,1.001,1.221,0.732,9.155
-0.023,-0.021,1.001,1.038,0.854,1.343
-0.024,-0.014,1.001,0.916,0.793,-0.244
-0.026,-0.013,1.001,0.610,0.610,-0.183
-0.028,-0.012,1.000,0.549,0.854,-0.366
-0.030,-0.015,1.001,0.427,0.854,-0.305
-0.029,-0.017,1.001,0.671,0.977,-0.244
-0.029,-0.020,1.001,0.732,0.916,-0.061
-0.028,-0.021,1.001,0.977,0.793,0.000
-0.026,-0.021,1.001,0.916,0.854,0.000
-0.024,-0.018,1.001,1.099,0.793,0.000
-0.022,-0.016,1.001,1.221,0.732,-0.061
-0.020,-0.014,1.001,1.221,0.732,-0.183
-0.019,-0.013,1.000,1.160,0.793,-0.183
-0.020,-0.013,1.000,0.854,0.793,-0.183
-0.020,-0.014,1.000,0.854,0.793,-0.183
-0.021,-0.016,1.002,1.099,0.977,-0.183
-0.024,-0.019,1.004,0.916,0.854,-0.122
-0.026,-0.019,1.002,0.793,0.854,-0.244
-0.027,-0.020,1.003,0.854,0.854,-0.244
-0.028,-0.019,1.002,0.610,0.732,-0.122
-0.028,-0.019,1.001,0.793,0.671,-0.244
-0.027,-0.017,1.001,1.038,0.793,-0.061
-0.025,-0.018,1.000,0.854,0.732,-0.122
-0.024,-0.018,1.000,0.793,0.732,0.000
-0.021,-0.017,1.001,0.854,0.671,0.061
-0.020,-0.016,1.001,1.099,0.854,-0.183
-0.020,-0.015,1.000,0.854,0.671,0.000
-0.021,-0.015,1.001,0.977,0.916,-0.061
-0.021,-0.015,1.001,0.854,0.793,-0.183
-0.022,-0.016,1.001,0.793,0.732,-0.122
-0.023,-0.017,1.001,0.732,0.671,-0.061
-0.025,-0.019,1.001,0.916,0.732,-0.122
-0.027,-0.019,1.001,0.977,0.793,-0.122
-0.027,-0.018,1.001,1.160,0.793,0.061
-0.028,-0.017,1.001,1.038,0.854,-0.122
-0.028,-0.018,1.001,1.160,0.854,-0.244
-0.028,-0.016,1.001,1.160,0.916,-0.122
-0.026,-0.015,1.000,1.099,0.916,-0.244
-0.027,-0.016,1.001,1.160,0.732,-0.244
-0.025,-0.015,1.001,1.160,0.854,-0.061
-0.024,-0.015,1.002,1.160,0.732,-0.244
-0.022,-0.016,1.003,0.854,0.732,-0.183
-0.021,-0.016,1.003,0.916,0.732,-0.183
-0.021,-0.016,1.003,1.038,0.671,-0.122
-0.020,-0.017,1.003,0.977,0.793,-0.305
-0.020,-0.017,1.001,0.916,0.854,-0.183
-0.021,-0.018,1.001,0.854,0.671,-0.122
-0.022,-0.021,1.001,0.916,0.732,-0.244
-0.023,-0.020,1.001,0.977,0.732,-0.122
-0.023,-0.019,1.001,1.038,0.671,-0.122
-0.025,-0.018,1.003,1.038,0.854,-0.366
-0.026,-0.016,1.001,1.099,0.916,-0.122
-0.025,-0.015,1.001,1.038,0.671,-0.061
-0.025,-0.015,1.001,1.038,0.793,-0.122
-0.026,-0.016,1.001,1.038,0.854,-0.183
-0.025,-0.017,1.001,1.038,0.610,-0.061
-0.025,-0.017,1.002,0.916,0.610,-0.244
-0.026,-0.017,1.001,0.854,0.854,-0.061
-0.024,-0.016,1.001,0.732,0.793,-0.122
-0.025,-0.016,1.001,0.671,0.671,-0.366
-0.024,-0.017,1.000,0.671,0.671,-0.366
-0.025,-0.017,1.000,0.549,0.854,-0.183
-0.027,-0.017,1.001,0.610,0.854,-0.244
-0.027,-0.023,1.003,1.160,0.854,-0.488
-0.057,-0.073,1.002,0.732,0.916,-1.038
-0.062,-0.064,1.001,1.221,0.793,-6.897
-0.021,0.021,1.003,2.197,0.854,-16.479
-0.004,0.002,1.002,1.526,0.977,-16.113
-0.004,-0.004,1.003,1.099,1.038,-11.292
-0.011,-0.011,1.001,0.977,0.977,-6.958
-0.014,-0.013,1.000,0.916,0.793,-4.883
-0.015,-0.011,1.001,0.854,0.671,-3.723
-0.016,-0.011,1.001,0.732,0.610,-2.686
-0.018,-0.014,1.001,0.732,0.732,-1.587
-0.020,-0.015,1.001,0.977,0.732,-0.916
-0.023,-0.015,1.001,0.977,0.793,-0.305
-0.025,-0.017,1.001,0.977,0.793,-0.183
-0.024,-0.017,1.001,1.160,0.854,-0.427
-0.026,-0.016,1.000,1.099,0.854,-0.244
-0.027,-0.017,1.001,1.221,0.732,-0.244
-0.028,-0.016,1.001,1.038,0.732,-0.183
-0.028,-0.015,1.001,1.221,0.732,-0.122
-0.028,-0.016,1.001,1.099,0.977,-0.183
-0.027,-0.015,1.001,0.916,0.793,-0.183
-0.027,-0.016,1.001,0.916,0.793,-0.244
-0.025,-0.017,1.000,1.038,0.793,-0.122
-0.024,-0.017,1.000,0.977,0.732,-0.122

-0.043,1.867,0.995,-0.610,0.122,53.040
-0.042,1.984,0.998,-1.343,-0.061,68.665
-0.095,1.933,0.994,-2.869,-0.122,70.435
-0.137,2.045,0.976,-4.578,0.183,58.289
0.010,2.145,0.980,-2.869,0.427,43.091
0.344,1.362,0.984,0.183,0.061,31.738
0.244,0.953,0.972,2.991,0.488,1.526
0.055,0.574,1.021,3.845,1.343,-45.715
-0.118,0.330,1.009,3.174,1.465,-91.980
-0.148,0.017,1.003,3.052,2.014,-121.704
-0.266,-0.303,0.997,1.343,2.197,-124.268
-0.378,-0.475,1.011,2.014,1.526,-106.934
-0.335,-0.875,1.015,-3.174,0.244,-75.928
-0.208,-0.827,1.005,-2.014,1.099,-52.795
-0.108,-0.938,1.002,0.305,1.404,-41.748
-0.100,-1.091,1.002,-1.221,1.770,-48.157
-0.112,-0.993,0.995,-1.709,1.648,-60.303
-0.037,-0.730,1.011,-0.427,1.953,-61.890
-0.024,-0.912,1.024,2.686,1.831,-47.241
-0.026,-1.032,1.014,1.526,1.831,-36.194
-0.006,-1.035,1.010,2.258,1.465,-32.227
-0.032,-1.125,1.007,2.563,1.099,-27.344
-0.025,-0.962,1.007,1.343,1.221,-25.452
-0.045,-0.777,1.007,0.366,1.099,-21.240
-0.073,-0.571,1.004,0.061,0.977,-14.404
-0.093,-0.501,1.005,0.549,1.038,-7.690
-0.079,-0.420,1.008,0.977,0.854,-3.235
-0.061,-0.372,1.007,0.977,0.793,1.526
-0.057,-0.302,1.003,0.793,0.732,5.310
0.004,-0.217,1.003,0.977,0.732,7.935
0.002,-0.214,1.002,0.854,0.732,11.292
0.002,-0.242,1.002,1.282,0.793,11.719
-0.027,-0.164,1.002,2.014,0.793,9.216
-0.045,-0.081,1.002,2.869,0.610,5.981
-0.046,-0.079,1.002,2.563,0.854,4.822
-0.065,-0.064,1.002,1.770,0.671,4.150
-0.061,-0.005,1.002,1.648,0.671,4.211
-0.048,-0.026,1.002,1.343,0.793,7.324
-0.022,-0.041,1.001,0.671,0.732,10.193
-0.017,-0.025,1.000,0.793,0.793,9.521
-0.016,-0.008,1.001,1.099,0.854,5.981
-0.021,0.012,1.001,1.160,0.793,2.441
-0.024,0.003,1.002,1.343,0.732,-0.488
-0.045,-0.000,1.002,1.038,0.671,-2.747
-0.048,-0.003,1.001,0.977,0.854,-3.540
-0.041,-0.002,1.000,1.160,0.854,-2.869
-0.035,-0.008,1.001,1.404,0.854,-1.221
-0.048,-0.056,1.001,1.526,0.793,-0.183
-0.046,-0.045,1.002,1.221,0.732,-1.099
-0.005,-0.052,1.002,1.221,0.793,-0.916
-0.012,-0.105,1.004,1.038,0.610,-0.183
-0.031,-0.098,1.000,0.793,0.732,-1.648
-0.020,-0.122,1.001,0.916,1.038,-3.906
-0.025,-0.122,1.003,1.221,0.916,-6.165
-0.026,-0.112,1.004,1.343,0.854,-7.568
-0.026,-0.146,1.004,1.160,0.793,-7.324
-0.034,-0.142,1.001,0.854,0.793,-6.653
-0.031,-0.154,1.001,0.793,0.854,-5.981
-0.028,-0.128,1.001,0.732,0.671,-5.615
-0.028,-0.125,1.002,0.793,0.671,-4.333
-0.011,-0.144,1.004,0.671,0.793,-1.526
-0.024,-0.205,1.006,0.793,0.671,1.038
-0.013,-0.205,1.003,0.793,0.549,1.587
-0.018,-0.314,1.002,0.977,0.610,2.930
-0.039,-0.224,1.001,0.793,0.732,3.113
-0.024,-0.036,1.001,1.465,0.671,0.793
-0.022,-0.022,1.002,1.526,0.610,0.122
-0.023,-0.021,1.002,1.221,0.793,-0.122
-0.024,-0.023,1.001,0.977,0.916,-0.061
-0.025,-0.022,1.001,0.916,0.793,-0.122
-0.026,-0.019,1.001,0.977,0.793,-0.061
-0.026,-0.018,1.001,0.671,0.671,-0.061
-0.026,-0.016,1.001,0.671,0.793,-0.244
-0.028,-0.014,1.001,0.732,0.793,-0.244
-0.027,-0.012,1.001,0.610,0.854,-0.183
-0.026,-0.011,1.001,0.732,0.793,-0.305
-0.025,-0.013,1.001,0.916,0.610,-0.122
-0.024,-0.013,1.001,0.977,0.732,-0.122
-0.022,-0.016,1.001,0.916,0.610,-0.305
-0.021,-0.016,1.001,0.916,0.671,-0.183
-0.020,-0.019,1.001,1.160,0.732,-0.305
-0.021,-0.021,1.001,1.099,0.793,-0.244
-0.020,-0.022,1.001,1.160,0.977,-0.061
-0.022,-0.021,1.001,1.099,0.977,-0.305
-0.022,-0.019,1.001,0.977,0.916,-0.244
-0.023,-0.018,1.001,0.916,0.671,-0.061
-0.024,-0.015,1.001,0.977,0.610,-0.183
-0.026,-0.014,1.001,0.793,0.732,0.000
-0.025,-0.013,1.001,0.916,0.916,0.061
-0.026,-0.013,1.001,0.977,0.854,0.000
-0.026,-0.014,1.001,0.916,0.793,-0.183
-0.027,-0.016,1.001,1.038,0.854,-0.183
-0.025,-0.018,1.001,0.977,0.732,-0.183
-0.024,-0.019,1.002,1.099,0.732,-0.183
-0.024,-0.019,1.001,1.160,0.854,-0.183
-0.023,-0.021,1.001,0.916,0.854,-0.122
-0.023,-0.020,1.001,0.793,0.671,-0.061
-0.023,-0.019,1.001,0.610,0.671,-0.183
-0.024,-0.018,1.001,0.732,0.671,-0.183
-0.023,-0.017,1.003,0.854,0.671,-0.183
-0.024,-0.017,1.001,1.038,0.793,-0.244
-0.023,-0.015,1.001,0.854,0.732,-0.244
-0.023,-0.015,1.001,0.854,0.671,-0.244
-0.024,-0.016,1.001,0.977,0.549,-0.305
-0.025,-0.016,1.001,1.099,0.671,-0.183
-0.025,-0.017,1.002,1.038,0.854,-0.244
-0.025,-0.018,1.001,1.038,0.916,-0.183
-0.025,-0.017,1.002,0.916,0.732,-0.122
-0.024,-0.018,1.001,0.977,0.732,-0.244
-0.024,-0.019,1.001,1.099,0.793,-0.244
-0.023,-0.018,1.002,1.038,0.732,-0.244
-0.022,-0.018,1.003,0.977,0.671,-0.183
-0.023,-0.017,1.001,1.099,0.916,-0.183
-0.024,-0.016,1.001,1.038,0.916,-0.183
-0.023,-0.015,1.001,1.099,0.671,-0.122
-0.024,-0.016,1.002,0.977,0.610,-0.244
-0.024,-0.016,1.001,0.977,0.854,-0.427
-0.024,-0.017,1.001,0.854,0.671,-0.183
-0.024,-0.017,1.001,1.099,0.793,-0.061

0.006,1.448,0.999,0.122,0.366,49.622
-0.109,1.689,0.993,1.465,-0.122,68.970
-0.008,1.659,0.995,1.526,-0.305,86.670
-0.048,1.495,0.997,0.366,0.000,95.337
-0.172,1.593,0.994,0.488,0.000,86.426
-0.190,1.680,0.989,0.610,0.305,68.726
-0.069,1.555,0.993,1.343,0.427,46.509
0.082,1.284,1.001,0.977,0.732,16.174
0.172,0.825,1.013,-0.305,1.465,-23.193
0.092,0.738,0.974,-2.380,2.747,-68.054
0.004,0.606,0.995,-0.793,1.709,-105.103
-0.047,0.196,0.998,2.197,1.831,-125.549
-0.171,-0.143,1.018,-2.747,2.563,-133.057
-0.289,-0.292,1.008,-7.568,1.770,-131.775
-0.268,-0.462,0.997,-1.770,1.160,-119.995
-0.208,-1.119,1.016,-0.610,1.221,-106.995
-0.292,-1.102,0.980,-8.423,0.977,-103.027
-0.244,-1.042,1.021,-1.160,1.282,-92.834
-0.313,-1.272,1.019,0.122,1.587,-66.528
-0.308,-1.423,1.019,1.343,1.282,-40.466
-0.284,-1.405,1.012,5.066,0.061,-19.592
-0.156,-1.239,1.009,4.333,0.244,-3.967
-0.096,-1.060,1.005,2.991,0.610,8.789
-0.066,-1.021,1.006,3.967,0.427,16.052
-0.029,-0.870,1.010,2.808,0.793,16.907
0.019,-0.752,1.011,3.296,0.732,12.573
0.019,-0.627,1.006,2.502,1.038,7.812
-0.038,-0.612,1.008,1.953,0.916,5.127
-0.027,-0.461,1.007,0.488,1.038,5.371
-0.003,-0.362,1.008,0.000,0.793,11.108
-0.009,-0.206,1.004,0.244,0.671,18.250
-0.018,-0.270,1.004,0.854,0.732,22.217
-0.015,-0.214,1.002,1.282,0.671,19.348
-0.038,-0.180,1.001,2.014,0.610,13.855
-0.042,-0.170,1.003,1.526,0.732,10.864
-0.021,-0.155,1.002,1.526,0.854,9.033
-0.033,-0.177,1.005,1.282,0.793,7.996
-0.038,-0.149,1.002,0.916,0.916,7.629
-0.037,-0.141,1.003,0.916,0.916,7.996
-0.024,-0.263,1.003,0.305,1.099,6.531
-0.010,-0.183,1.002,0.122,0.977,0.610
-0.018,-0.061,1.002,-0.671,1.038,-3.479
-0.026,0.015,0.999,-0.610,1.099,-2.625
-0.019,-0.037,1.003,-0.244,0.916,0.854
-0.063,0.498,0.981,-0.244,0.793,4.456
-0.038,-0.111,1.002,0.244,0.793,15.747
-0.020,-0.164,1.009,0.366,0.732,14.893
-0.025,0.017,1.001,1.648,0.244,7.690
-0.049,0.132,1.001,1.953,0.549,8.545
-0.041,0.112,0.994,1.892,0.549,13.489
0.010,-0.046,1.002,1.953,0.549,17.456
0.039,-0.284,1.004,1.831,0.610,18.127
0.032,-0.440,1.003,1.221,0.671,12.146
-0.015,-0.077,1.003,1.038,0.610,3.113
-0.024,-0.021,1.002,1.282,0.610,-0.183
-0.023,-0.019,1.001,1.221,0.671,-0.244
-0.022,-0.020,1.001,1.099,0.732,-0.183
-0.023,-0.020,1.002,1.160,0.854,-0.183
-0.023,-0.019,1.001,1.221,0.793,-0.061
-0.023,-0.019,1.001,0.793,0.854,-0.061
-0.023,-0.017,1.001,0.916,0.793,-0.061
-0.023,-0.016,1.001,0.793,0.671,-0.122
-0.024,-0.015,1.001,0.793,0.732,-0.183
-0.023,-0.014,1.001,1.099,0.732,-0.183
-0.024,-0.014,1.001,1.038,0.732,-0.366
-0.024,-0.014,1.001,0.916,0.610,-0.183
-0.025,-0.015,1.001,0.916,0.732,-0.183
-0.025,-0.016,1.001,0.916,0.610,-0.366
-0.024,-0.017,1.001,0.793,0.610,-0.305
-0.025,-0.019,1.001,0.793,0.793,-0.183
-0.026,-0.018,1.001,0.916,0.732,-0.061
-0.025,-0.019,1.001,0.916,0.671,0.183
-0.025,-0.018,1.001,0.916,0.671,0.305
-0.026,-0.017,1.001,0.854,0.732,0.061
-0.025,-0.015,1.001,0.671,0.671,-0.244
-0.025,-0.014,1.001,0.793,0.671,-0.122
-0.025,-0.013,1.001,0.916,0.916,0.000
-0.024,-0.013,1.001,0.793,0.977,-0.183
-0.024,-0.015,1.001,0.610,0.793,-0.244
-0.025,-0.015,1.001,0.610,0.732,-0.244
-0.025,-0.017,1.001,0.732,0.854,-0.122
-0.024,-0.019,1.001,0.671,0.793,-0.183
-0.023,-0.019,1.001,0.610,0.977,-0.122
-0.024,-0.018,1.001,0.610,0.732,0.000
-0.024,-0.017,1.001,0.793,0.854,-0.122
-0.024,-0.018,1.001,0.793,0.793,-0.244
-0.023,-0.017,1.001,0.977,0.854,-0.244
-0.024,-0.016,1.001,0.916,0.793,-0.244
-0.024,-0.013,1.001,1.160,0.916,-0.183
-0.024,-0.013,1.001,1.038,0.793,-0.061
-0.024,-0.013,1.001,0.977,0.610,-0.122
-0.024,-0.013,1.002,0.977,0.610,-0.122
-0.025,-0.014,1.001,1.038,0.916,-0.183
-0.024,-0.016,1.002,1.099,0.793,-0.244
-0.024,-0.017,1.001,1.160,0.854,-0.061
-0.024,-0.018,1.001,0.854,0.549,-0.061
-0.024,-0.019,1.001,0.916,0.732,-0.244
-0.025,-0.018,1.001,0.854,0.671,-0.244
-0.025,-0.018,1.001,0.793,0.916,-0.183
-0.024,-0.019,1.003,1.038,0.793,-0.122
-0.025,-0.016,1.001,1.099,0.793,-0.061
-0.026,-0.015,1.001,0.977,0.732,-0.183
-0.025,-0.013,1.001,0.854,0.549,-0.244
-0.024,-0.014,1.001,0.916,0.732,-0.305
-0.026,-0.014,1.001,1.099,0.671,-0.244
-0.026,-0.015,1.002,1.038,0.793,-0.183
-0.025,-0.016,1.001,1.221,0.916,-0.061
-0.024,-0.017,1.001,1.221,0.610,-0.183
-0.024,-0.018,1.001,1.099,0.671,-0.305
-0.024,-0.018,1.001,1.099,0.671,-0.305
-0.024,-0.018,1.001,0.977,0.854,-0.305
-0.023,-0.018,1.002,0.916,0.793,-0.305
-0.023,-0.018,1.001,1.038,0.854,-0.305
-0.023,-0.017,1.001,1.099,0.793,-0.305
-0.022,-0.016,1.001,1.221,0.854,-0.366
-0.023,-0.016,1.001,1.221,0.793,-0.427
-0.024,-0.015,1.001,1.038,0.671,-0.427
-0.024,-0.015,1.002,1.038,0.793,-0.488
-0.025,-0.016,1.001,1.221,1.038,-0.488

-0.208,1.746,0.993,3.357,-0.061,51.086
-0.090,1.944,0.988,3.174,0.122,41.931
-0.043,1.880,0.995,2.258,0.488,22.034
-0.074,1.759,0.984,0.854,0.793,-10.498
-0.150,1.652,0.982,0.000,1.343,-46.021
-0.143,1.730,1.009,-0.610,2.258,-78.552
-0.020,1.316,1.013,0.549,2.747,-93.994
-0.052,1.448,0.996,-2.014,2.197,-94.543
-0.156,0.843,0.949,-1.526,1.099,-87.036
-0.231,0.317,1.015,3.723,1.343,-89.172
-0.347,0.116,1.008,-6.592,0.793,-100.342
-0.346,-0.120,0.988,-2.930,0.732,-105.652
-0.302,-0.733,0.997,-1.038,0.732,-110.962
-0.277,-0.792,1.007,-4.639,1.465,-118.896
-0.286,-1.380,1.046,1.038,2.686,-110.474
-0.505,-1.947,1.010,2.808,1.953,-96.680
-0.267,-2.152,1.010,7.019,0.732,-82.825
-0.221,-1.681,1.009,5.066,1.404,-57.861
-0.156,-1.797,1.004,6.287,1.282,-22.095
-0.085,-1.664,1.013,4.944,1.160,7.629
-0.006,-1.578,1.016,3.357,0.854,24.597
0.074,-1.328,1.016,0.854,0.671,39.001
0.100,-1.128,1.013,0.488,0.366,52.673
0.027,-0.993,1.007,0.977,0.366,62.622
-0.015,-0.797,1.007,0.671,0.305,66.711
-0.020,-0.556,1.005,0.488,0.122,69.702
-0.038,-0.474,1.002,0.671,0.061,72.510
-0.056,-0.474,1.005,0.488,0.061,68.909
-0.094,-0.461,1.004,0.610,0.122,55.603
-0.099,-0.268,1.001,1.343,0.366,38.025
-0.069,-0.140,1.004,1.343,0.366,24.048
-0.066,-0.108,1.001,0.793,0.488,12.634
-0.031,-0.026,1.001,0.671,0.549,2.441
-0.028,-0.016,1.001,0.488,0.732,-0.122
-0.030,-0.013,1.002,0.366,0.732,-0.183
-0.031,-0.010,1.001,0.610,1.038,-0.122
-0.030,-0.010,1.001,0.732,0.977,-0.061
-0.029,-0.010,1.001,0.977,0.854,-0.122
-0.026,-0.012,1.000,0.977,0.854,-0.122
-0.024,-0.014,1.001,0.977,0.732,-0.183
-0.022,-0.017,1.003,1.160,0.793,-0.305
-0.020,-0.019,1.001,0.977,0.854,-0.122
-0.018,-0.012,1.001,0.671,0.854,-0.061
-0.119,0.510,1.016,0.244,0.854,0.732
0.015,-0.340,0.997,-5.615,1.160,7.202
-0.001,-0.075,1.007,-8.240,1.343,-1.221
-0.001,-0.026,0.987,-5.310,1.160,-4.822
-0.015,-0.038,1.001,-1.465,0.977,-2.258
-0.019,-0.076,1.000,-1.160,0.977,-0.366
-0.024,-0.017,1.000,-0.977,0.916,-0.366
-0.026,-0.009,1.001,0.671,0.732,-0.305
-0.029,-0.010,1.001,0.488,0.610,-0.183
-0.027,-0.010,1.001,0.488,0.610,-0.244
-0.027,-0.010,1.001,0.793,0.732,-0.061
-0.026,-0.011,1.001,0.793,0.671,-0.244
-0.026,-0.011,1.001,0.732,0.610,-0.366
-0.024,-0.012,1.000,0.854,0.549,-0.305
-0.022,-0.013,1.001,1.160,0.610,-0.183
-0.023,-0.012,1.001,1.038,0.671,-0.244
-0.022,-0.011,1.000,1.160,0.793,-0.122
-0.023,-0.011,1.001,1.282,0.732,-0.183
-0.023,-0.009,1.001,0.916,0.610,-0.244
-0.023,-0.008,1.000,1.038,0.671,-0.183
-0.024,-0.005,1.000,1.160,0.793,-0.183
-0.024,-0.015,1.004,2.441,0.793,-0.122
-0.025,-0.011,1.001,2.686,0.610,-0.122
-0.025,-0.012,1.001,1.892,0.793,-0.366
-0.024,-0.015,1.003,3.479,0.610,-0.122
-0.024,-0.022,1.008,4.517,0.610,-0.061
-0.023,-0.014,1.001,2.136,0.793,-0.061
-0.024,-0.017,1.003,2.441,0.610,-0.061
-0.022,-0.013,1.000,1.892,0.610,-0.061
-0.022,-0.014,1.001,2.441,0.793,-0.183
-0.022,-0.014,1.001,2.319,0.732,-0.122
-0.022,-0.012,1.001,2.258,0.732,-0.183
-0.023,-0.014,1.001,2.136,0.732,-0.122
-0.024,-0.013,1.001,1.892,0.732,-0.183
-0.024,-0.014,1.001,1.709,0.793,-0.244
-0.024,-0.014,1.001,1.465,0.854,-0.244
-0.025,-0.015,1.001,1.465,0.793,-0.061
-0.026,-0.017,1.001,1.526,0.671,-0.183
-0.025,-0.018,1.001,1.465,0.610,-0.366
-0.026,-0.016,1.001,1.221,0.671,-0.244
-0.024,-0.016,1.001,1.343,0.854,0.000
-0.024,-0.016,1.000,1.831,0.916,-0.183
-0.023,-0.016,1.001,1.892,0.793,-0.122
-0.022,-0.015,1.000,1.892,0.793,-0.122
-0.022,-0.015,1.001,2.075,0.732,0.000
-0.022,-0.014,1.001,2.014,0.610,-0.061
-0.022,-0.016,1.001,1.587,0.671,-0.122
-0.023,-0.016,1.001,1.465,0.610,-0.122
-0.023,-0.017,1.001,1.343,0.549,-0.122
-0.024,-0.016,1.001,1.099,0.793,-0.061
-0.023,-0.019,1.001,1.160,0.854,-0.183
-0.025,-0.022,1.001,0.916,0.732,-0.122
-0.024,-0.014,1.000,-0.061,0.793,-0.305
-0.026,-0.017,1.000,0.793,0.854,-0.122
-0.026,-0.017,1.001,1.099,0.732,-0.183
-0.026,-0.016,1.001,1.160,0.671,-0.366
-0.025,-0.016,1.000,1.343,0.732,-0.183
-0.023,-0.015,1.001,1.526,0.793,-0.061
-0.023,-0.016,1.001,1.465,0.793,-0.061
-0.023,-0.015,1.001,1.404,0.732,-0.061
-0.021,-0.016,1.001,1.404,0.610,-0.183
-0.021,-0.017,1.000,1.526,0.793,-0.244
-0.022,-0.018,1.001,1.526,0.854,-0.183
-0.023,-0.018,1.001,1.648,0.671,-0.244
-0.024,-0.020,1.001,1.709,0.488,-0.244
-0.025,-0.020,1.001,1.953,0.732,-0.244
-0.026,-0.021,1.001,1.953,0.671,-0.488
-0.027,-0.022,1.001,1.892,0.610,-0.671
-0.027,-0.019,1.001,1.892,0.366,-0.977
-0.027,-0.016,1.001,1.648,0.549,-0.977
-0.026,-0.020,1.001,1.526,0.671,-0.793
-0.025,-0.017,1.001,1.770,0.671,-0.854
-0.024,-0.014,1.002,1.709,0.549,-1.221
-0.023,-0.016,1.001,1.709,0.488,-0.977
-0.022,-0.017,1.001,1.526,0.488,-0.732
-0.022,-0.019,1.001,1.709,0.488,-0.610

