aX,aY,aZ,gX,gY,gZ
0.347,-1.484,1.009,2.014,3.052,-84.656
0.120,-1.604,1.013,1.526,4.395,-69.885
-0.001,-1.779,1.024,2.930,6.592,-43.457
-0.112,-2.111,1.015,4.700,6.897,-6.287
-0.124,-1.886,1.005,5.432,2.869,34.119
-0.236,-1.928,0.995,3.418,-2.747,79.834
-0.249,-1.696,0.987,-0.854,-6.653,117.859
-0.267,-1.178,1.020,-3.052,-7.996,146.057
-0.265,-1.012,0.995,1.465,-3.357,166.931
-0.255,-0.862,1.009,1.709,-2.075,175.659
-0.311,-0.459,1.022,7.019,-2.258,167.969
-0.343,-0.010,0.997,3.906,-2.075,156.494
-0.470,0.403,0.984,-1.709,-1.587,153.503
-0.433,0.835,0.982,-2.747,-0.488,160.339
-0.326,1.728,1.002,-0.305,0.366,153.748
-0.458,1.935,0.982,-0.122,-0.488,127.014
-0.357,1.956,0.971,-4.639,1.160,107.178
-0.330,2.222,0.999,-6.348,4.395,71.594
-0.367,2.190,0.994,1.221,3.967,48.035
-0.407,2.210,0.991,5.493,1.282,34.363
-0.322,2.000,0.988,1.831,0.793,26.245
-0.338,1.883,0.990,0.305,0.244,8.789
-0.440,1.424,0.990,1.404,0.916,-16.541
-0.260,0.466,1.001,2.197,1.404,-38.330
-0.162,0.099,1.002,2.380,1.465,-41.260
-0.113,0.031,1.000,0.549,1.465,-25.818
-0.072,-0.018,0.998,-0.122,1.526,-9.033
-0.034,-0.064,0.997,-0.061,1.465,-4.028
-0.021,-0.078,1.000,0.549,1.770,-4.089
-0.015,-0.073,1.004,0.793,2.075,-3.906
-0.016,-0.049,1.001,1.160,2.197,-4.456
-0.004,-0.057,1.000,1.282,1.953,-3.052
-0.021,-0.019,1.001,1.526,2.014,-0.061
-0.027,-0.013,1.005,1.404,1.709,0.305
-0.018,-0.010,1.000,1.465,1.892,0.671
-0.016,-0.011,1.000,1.587,0.793,0.427
-0.004,-0.016,0.998,1.221,0.366,0.183
-0.006,-0.019,1.000,1.038,-0.610,0.000
-0.004,-0.022,1.001,0.732,-0.305,-0.061
-0.006,-0.018,1.001,0.671,0.427,-0.366
-0.014,-0.015,1.000,0.916,0.488,-0.305
-0.022,-0.012,0.999,1.221,0.793,-0.366
-0.028,-0.012,1.000,1.160,0.854,-0.427
-0.032,-0.016,1.001,0.916,0.793,-0.183
-0.034,-0.020,1.001,1.038,0.916,-0.244
-0.033,-0.024,1.000,0.977,0.916,-0.305
-0.033,-0.024,1.000,1.099,0.854,-0.366
-0.033,-0.023,1.000,1.099,0.732,-0.122
-0.033,-0.018,1.001,1.160,0.977,-0.244
-0.031,-0.013,1.000,1.099,0.916,-0.244
-0.028,-0.009,1.001,1.282,0.916,-0.305
-0.025,-0.008,1.001,1.404,0.916,-0.122
-0.016,-0.010,1.001,1.526,0.854,-0.061
-0.011,-0.014,1.000,1.526,0.977,0.061
-0.006,-0.017,1.000,1.526,1.038,0.061
-0.004,-0.021,1.000,1.587,0.916,0.000
-0.007,-0.021,1.000,1.465,0.916,-0.061
-0.013,-0.020,1.000,1.404,1.038,-0.122
-0.021,-0.016,1.001,1.465,0.854,-0.366
-0.027,-0.016,1.001,1.343,0.916,-0.244
-0.032,-0.015,1.001,1.465,1.160,-0.061
-0.035,-0.018,1.000,1.404,0.916,-0.183
-0.034,-0.019,1.000,1.282,0.977,-0.183
-0.032,-0.020,1.001,1.343,0.977,-0.244
-0.030,-0.021,1.001,1.221,0.793,-0.122
-0.028,-0.018,1.001,1.160,0.916,-0.305
-0.025,-0.015,1.001,1.282,1.038,-0.183
-0.023,-0.013,1.000,1.038,0.854,-0.061
-0.021,-0.013,1.000,1.099,0.793,-0.122
-0.016,-0.014,1.000,1.282,0.671,-0.366
-0.013,-0.016,1.000,1.221,0.793,-0.427
-0.012,-0.019,1.001,1.099,0.732,-0.122
-0.012,-0.020,1.000,1.343,0.977,-0.122
-0.015,-0.019,1.000,1.160,0.916,-0.183
-0.018,-0.019,1.000,1.160,0.854,-0.244
-0.023,-0.016,1.000,1.282,0.793,-0.183
-0.026,-0.014,1.000,1.343,0.854,-0.244
-0.031,-0.015,1.001,1.404,0.732,-0.183
-0.031,-0.016,1.000,1.404,1.038,0.000
-0.031,-0.017,1.000,1.282,0.916,-0.061
-0.029,-0.019,1.001,1.282,0.916,-0.061
-0.027,-0.018,1.000,1.038,0.793,-0.061
-0.025,-0.018,1.000,1.160,0.916,-0.122
-0.023,-0.018,1.001,1.099,0.854,-0.122
-0.021,-0.016,1.000,1.160,0.977,-0.183
-0.021,-0.014,1.000,1.099,0.916,-0.244
-0.019,-0.015,1.001,1.221,0.854,-0.244
-0.018,-0.016,1.000,1.221,0.793,-0.122
-0.016,-0.018,1.000,1.160,0.916,-0.061
-0.018,-0.018,1.001,1.221,0.977,-0.183
-0.019,-0.018,1.000,1.282,1.099,-0.122
-0.022,-0.017,1.001,1.221,1.038,-0.244
-0.025,-0.015,1.001,1.221,1.038,-0.183
-0.027,-0.015,1.000,1.221,1.099,-0.244
-0.028,-0.015,1.000,1.160,0.977,-0.122
-0.028,-0.016,1.001,1.221,0.977,-0.244
-0.027,-0.017,1.001,1.282,1.099,-0.183
-0.024,-0.019,1.001,1.160,0.977,-0.244
-0.023,-0.019,1.001,1.038,0.854,-0.122
-0.021,-0.018,1.000,1.221,0.854,-0.122
-0.019,-0.017,1.000,1.160,0.854,-0.183
-0.019,-0.015,1.001,1.099,0.732,-0.183
-0.020,-0.015,1.000,1.099,1.038,-0.122
-0.020,-0.014,1.001,1.221,0.916,-0.305
-0.021,-0.015,1.001,1.099,0.916,-0.183
-0.021,-0.016,1.001,1.099,0.854,-0.183
-0.023,-0.017,1.001,1.160,0.793,-0.244
-0.025,-0.017,1.000,1.221,0.854,-0.366
-0.026,-0.017,1.000,1.343,0.916,-0.183
-0.027,-0.017,1.001,1.221,0.977,-0.122
-0.026,-0.016,1.001,1.099,0.916,-0.061
-0.026,-0.016,1.000,1.160,0.916,-0.183
-0.024,-0.017,1.001,1.099,0.977,-0.061
-0.022,-0.017,1.001,1.160,0.977,-0.183
-0.022,-0.018,1.000,1.099,0.977,-0.122
-0.020,-0.017,1.001,1.282,1.038,-0.183
-0.019,-0.016,1.000,1.282,0.977,-0.427
-0.020,-0.016,1.001,1.160,0.977,-0.183
-0.020,-0.016,1.001,1.160,0.732,-0.183

0.145,-1.721,1.013,3.052,0.916,16.846
0.032,-1.296,1.011,2.441,0.977,25.452
0.029,-1.237,1.001,2.441,0.916,50.659
0.074,-1.338,1.010,0.793,-0.671,81.543
0.024,-1.222,1.003,-0.610,-0.549,86.914
-0.000,-0.510,1.002,-0.488,-0.244,84.290
0.007,-0.406,0.998,0.061,-0.366,92.163
0.027,-0.237,1.003,-0.610,-0.183,85.754
-0.096,0.329,1.017,3.113,-0.427,57.922
-0.137,0.675,1.012,7.874,-0.732,40.771
-0.162,0.280,1.004,5.493,0.061,36.133
-0.276,0.783,0.987,5.859,0.183,18.860
-0.265,0.897,0.995,0.977,0.183,24.414
-0.251,1.018,0.992,-2.075,-0.061,47.852
-0.158,0.911,1.001,-1.404,0.610,61.157
-0.106,1.184,1.000,-0.488,1.221,44.006
-0.075,1.164,0.995,1.221,1.221,28.687
-0.072,0.999,0.993,1.770,1.160,10.803
-0.061,0.949,0.995,1.099,1.587,-7.629
-0.132,0.787,0.998,1.160,1.160,-23.743
-0.164,0.522,0.999,2.197,0.854,-25.330
-0.144,0.390,1.000,1.953,0.977,-18.127
-0.101,0.381,1.000,1.038,1.160,-4.822
-0.039,0.227,1.001,0.427,0.916,9.705
-0.053,0.178,1.000,0.549,0.854,13.245
-0.049,0.135,1.001,1.465,0.732,7.568
-0.076,0.078,1.001,2.075,1.099,-3.235
-0.096,0.125,1.002,2.869,1.038,-10.132
-0.100,0.084,1.005,2.747,0.854,-10.315
-0.103,0.031,1.002,2.625,0.977,-7.996
-0.105,0.115,0.998,2.197,1.038,-5.249
-0.068,0.165,1.000,2.075,0.916,3.052
-0.035,0.186,1.001,1.892,1.099,9.216
-0.009,0.274,1.003,1.770,0.916,9.216
-0.021,0.296,1.001,1.831,0.610,10.254
-0.015,0.459,1.015,1.648,0.732,10.010
-0.005,0.224,0.999,2.747,0.244,10.193
-0.021,0.004,1.002,1.648,0.610,2.563
-0.027,0.004,0.999,1.526,0.854,0.305
-0.026,-0.020,1.000,0.793,1.282,2.197
-0.024,-0.028,1.004,-0.916,1.648,4.272
-0.024,-0.036,1.002,-0.183,1.160,2.502
-0.021,-0.039,1.001,0.244,1.038,1.465
-0.026,-0.031,1.001,0.732,0.977,0.427
-0.027,-0.028,1.000,0.854,1.099,-0.183
-0.027,-0.026,1.001,0.916,1.038,-0.305
-0.025,-0.021,1.001,0.854,0.916,-0.122
-0.024,-0.017,1.001,1.282,0.732,0.000
-0.030,0.017,0.996,1.221,0.793,0.122
-0.011,-0.033,1.002,0.305,1.038,1.953
-0.019,-0.011,1.000,0.366,1.343,1.770
-0.017,-0.017,1.001,0.671,1.343,1.404
-0.019,-0.017,1.001,0.488,1.221,1.404
-0.025,-0.015,1.001,0.610,1.038,1.160
-0.025,-0.020,1.001,0.610,1.221,0.916
-0.030,-0.019,1.001,0.732,1.099,0.549
-0.033,-0.019,1.000,0.854,0.977,0.488
-0.030,-0.025,1.001,1.038,1.160,0.671
-0.026,-0.031,1.000,1.099,1.160,0.549
-0.025,-0.029,1.001,0.977,0.977,0.427
-0.024,-0.024,1.001,0.977,0.854,0.305
-0.022,-0.020,1.001,1.099,0.916,0.305
-0.023,-0.015,1.000,0.916,0.916,0.427
-0.021,-0.010,1.000,0.916,0.916,0.488
-0.020,-0.012,1.000,0.916,0.854,0.427
-0.018,-0.015,1.001,0.977,0.732,0.427
-0.017,-0.016,1.001,1.038,0.854,0.244
-0.018,-0.020,1.001,1.160,0.854,0.000
-0.020,-0.023,1.001,1.160,0.916,-0.183
-0.022,-0.024,1.001,1.221,0.977,-0.122
-0.024,-0.023,1.001,0.977,0.916,-0.183
-0.027,-0.022,1.001,0.854,0.977,-0.244
-0.029,-0.021,1.000,0.977,0.916,-0.244
-0.029,-0.019,1.001,1.038,0.732,-0.244
-0.029,-0.018,1.001,0.916,0.732,-0.122
-0.026,-0.018,1.001,1.038,0.854,-0.183
-0.023,-0.017,1.001,1.038,0.732,-0.122
-0.021,-0.015,1.000,1.038,0.793,-0.061
-0.021,-0.013,1.000,0.977,0.854,-0.183
-0.021,-0.014,1.000,1.038,0.916,-0.244
-0.022,-0.015,1.001,0.916,0.732,-0.305
-0.021,-0.016,1.001,1.282,0.793,-0.183
-0.022,-0.019,1.001,1.160,0.916,-0.122
-0.021,-0.022,1.000,1.160,0.916,-0.183
-0.023,-0.025,1.001,1.038,0.916,-0.183
-0.024,-0.024,1.001,1.038,0.854,-0.244
-0.026,-0.022,1.002,1.038,0.854,-0.427
-0.027,-0.019,1.001,1.160,0.916,-0.305
-0.028,-0.016,1.001,1.221,0.793,-0.305
-0.028,-0.015,1.001,1.099,0.732,-0.244
-0.026,-0.014,1.001,1.160,0.671,-0.305
-0.024,-0.015,1.000,1.038,0.671,-0.427
-0.022,-0.016,1.001,0.977,0.854,-0.366
-0.020,-0.017,1.001,1.282,0.916,-0.244
-0.020,-0.019,1.001,1.099,0.916,-0.183
-0.020,-0.019,1.001,0.977,0.793,-0.183
-0.022,-0.019,1.000,1.099,0.977,-0.305
-0.023,-0.019,1.000,1.099,0.793,-0.183
-0.024,-0.020,1.002,1.160,0.854,-0.061
-0.024,-0.020,1.001,1.282,0.977,-0.061
-0.024,-0.020,1.001,1.221,0.916,-0.061
-0.026,-0.018,1.001,1.221,0.916,-0.061
-0.025,-0.018,1.000,1.038,0.916,-0.122
-0.026,-0.017,1.000,1.221,0.854,-0.305
-0.025,-0.016,1.001,1.099,0.610,-0.183
-0.025,-0.016,1.001,1.282,0.671,-0.244
-0.024,-0.016,1.001,1.160,0.793,-0.183
-0.023,-0.017,1.001,1.099,0.732,-0.305
-0.021,-0.019,1.001,1.099,0.793,-0.122
-0.020,-0.021,1.001,1.038,0.793,-0.122
-0.020,-0.021,1.001,1.099,0.671,-0.427
-0.021,-0.021,1.001,1.282,0.732,-0.244
-0.022,-0.020,1.001,1.221,0.854,-0.061
-0.025,-0.018,1.001,1.160,0.793,-0.183
-0.026,-0.018,1.001,0.977,0.793,-0.244
-0.026,-0.016,1.001,0.977,0.854,-0.122
-0.028,-0.016,1.001,1.099,0.977,-0.244
-0.027,-0.017,1.001,1.160,1.038,-0.183
-0.027,-0.016,1.001,1.160,0.977,-0.122

-0.037,-1.740,1.014,5.127,6.042,-28.809
-0.005,-2.073,1.010,5.432,5.981,0.916
-0.048,-1.860,1.012,5.981,3.967,29.541
-0.066,-1.754,0.990,4.944,0.854,66.650
-0.052,-1.699,0.994,2.502,-2.258,102.478
-0.106,-1.419,0.992,-1.465,-5.981,119.141
-0.101,-0.886,1.004,-2.869,-7.080,131.226
-0.091,-0.554,0.976,2.319,-5.920,145.996
-0.076,-0.301,1.049,2.380,-2.869,148.132
-0.130,0.557,1.008,6.287,-2.686,137.268
-0.033,0.949,1.037,5.554,-2.075,135.559
0.024,0.675,0.977,2.991,-0.732,113.220
-0.198,1.048,0.990,-4.761,0.549,62.622
-0.301,1.587,1.000,-2.136,1.343,32.593
-0.185,1.208,1.006,-0.549,1.221,55.664
-0.150,1.545,0.992,-0.122,0.610,62.988
-0.118,1.715,0.987,-1.770,1.343,40.649
-0.211,1.587,0.992,-5.554,2.930,19.958
-0.158,1.414,1.002,-6.348,4.700,4.944
-0.173,1.158,0.999,-1.587,3.174,-6.592
-0.086,0.824,0.999,1.282,2.075,-19.287
-0.085,0.674,0.997,1.953,2.136,-38.330
-0.100,0.424,0.999,2.808,1.465,-46.875
-0.108,0.245,0.999,2.991,1.587,-43.701
-0.136,0.218,0.999,2.686,0.610,-34.607
-0.140,0.175,1.002,2.441,-0.061,-22.278
-0.128,0.105,1.002,2.563,0.061,-9.338
-0.121,0.132,1.001,2.075,0.732,-0.671
-0.138,0.218,1.001,2.014,0.732,3.723
-0.136,0.230,1.001,2.014,0.732,5.554
-0.145,0.291,1.000,1.587,0.671,4.517
-0.220,0.390,0.998,1.953,0.610,3.784
-0.044,0.017,1.003,1.953,0.610,2.502
-0.026,-0.016,1.004,1.160,0.854,-0.122
-0.025,-0.015,1.001,1.221,1.099,0.122
-0.024,-0.014,1.001,1.404,1.160,0.000
-0.024,-0.014,1.001,1.465,1.099,0.122
-0.020,-0.017,1.002,1.343,1.038,0.061
-0.021,-0.018,1.002,1.282,0.977,0.061
-0.019,-0.020,1.002,0.977,0.793,0.061
-0.019,-0.022,1.000,0.977,0.793,0.000
-0.020,-0.023,1.001,1.160,0.793,-0.061
-0.021,-0.022,1.001,1.160,0.977,0.061
-0.020,-0.022,1.001,1.160,0.854,-0.122
-0.020,-0.022,1.001,1.404,0.916,-0.122
-0.020,-0.021,1.002,1.221,1.038,-0.183
-0.019,-0.019,1.001,1.038,0.916,-0.244
-0.019,-0.019,1.001,0.977,0.732,-0.122
-0.021,-0.016,1.001,1.038,0.793,-0.122
-0.023,-0.015,1.000,1.160,0.732,-0.305
-0.025,-0.013,1.000,1.160,0.793,-0.183
-0.026,-0.014,1.002,1.038,0.793,-0.122
-0.027,-0.016,1.001,1.099,0.671,-0.061
-0.026,-0.019,1.001,1.038,0.854,-0.183
-0.026,-0.022,1.001,1.160,1.038,-0.183
-0.026,-0.023,1.001,1.038,1.038,-0.122
-0.026,-0.024,1.001,1.160,1.038,-0.061
-0.026,-0.022,1.001,1.282,0.916,-0.061
-0.024,-0.020,1.001,1.038,0.793,-0.061
-0.024,-0.017,1.000,1.160,0.793,-0.183
-0.023,-0.016,1.001,1.099,0.916,-0.122
-0.021,-0.015,1.001,0.854,0.793,-0.122
-0.020,-0.015,1.001,1.099,0.732,0.000
-0.019,-0.016,1.001,1.282,0.854,-0.122
-0.019,-0.018,1.001,1.038,0.732,-0.366
-0.020,-0.019,1.001,0.916,0.977,-0.244
-0.020,-0.020,1.001,1.038,0.916,-0.122
-0.022,-0.021,1.001,1.038,0.732,-0.183
-0.022,-0.021,1.000,1.099,0.793,-0.244
-0.023,-0.021,1.001,1.160,0.854,-0.183
-0.022,-0.021,1.001,1.160,0.916,-0.244
-0.024,-0.021,1.001,1.282,0.854,-0.366
-0.025,-0.019,1.001,1.404,0.854,-0.183
-0.025,-0.018,1.001,1.221,0.916,-0.122
-0.025,-0.016,1.001,1.099,0.916,-0.122
-0.026,-0.015,1.001,1.221,0.977,-0.183
-0.026,-0.013,1.001,1.038,0.854,-0.183
-0.026,-0.015,1.001,1.038,0.854,-0.122
-0.024,-0.016,1.001,1.099,0.977,-0.244
-0.024,-0.020,1.001,1.099,0.793,-0.183
-0.021,-0.022,1.001,1.221,0.793,0.000
-0.021,-0.023,1.001,1.282,0.977,-0.061
-0.021,-0.023,1.001,1.099,0.732,-0.244
-0.020,-0.022,1.001,1.099,0.854,-0.366
-0.020,-0.019,1.001,1.160,0.854,-0.183
-0.020,-0.018,1.001,1.160,0.916,-0.244
-0.021,-0.018,1.001,1.099,0.854,-0.244
-0.022,-0.016,1.001,1.099,0.916,-0.244
-0.023,-0.015,1.001,1.038,0.854,-0.183
-0.024,-0.016,1.001,0.977,0.732,-0.183
-0.026,-0.017,1.001,1.099,0.732,-0.244
-0.026,-0.017,1.001,1.099,0.916,-0.305
-0.026,-0.018,1.001,1.099,0.854,-0.183
-0.027,-0.019,1.001,1.282,0.854,-0.122
-0.026,-0.021,1.001,1.221,0.916,-0.061
-0.026,-0.021,1.001,1.282,0.916,-0.183
-0.024,-0.022,1.001,1.099,0.732,-0.183
-0.022,-0.021,1.001,1.221,0.916,-0.183
-0.021,-0.019,1.001,1.221,0.977,-0.183
-0.020,-0.016,1.001,1.404,1.099,-0.061
-0.020,-0.016,1.001,1.221,0.977,-0.122
-0.021,-0.016,1.001,1.160,0.854,-0.183
-0.021,-0.015,1.001,1.099,0.916,-0.244
-0.021,-0.016,1.001,1.160,0.916,-0.183
-0.022,-0.017,1.001,1.282,0.854,-0.183
-0.023,-0.017,1.001,1.404,0.854,-0.122
-0.024,-0.019,1.001,1.404,0.977,-0.244
-0.025,-0.020,1.001,1.221,1.099,-0.122
-0.025,-0.022,1.001,1.221,0.916,-0.122
-0.025,-0.022,1.001,1.099,0.916,-0.183
-0.026,-0.021,1.001,1.160,0.854,-0.244
-0.025,-0.020,1.001,1.343,0.916,-0.061
-0.024,-0.019,1.001,1.099,0.793,-0.061
-0.023,-0.017,1.001,1.221,0.854,-0.122
-0.023,-0.016,1.001,1.221,0.977,-0.183
-0.021,-0.016,1.001,1.099,0.916,-0.061
-0.021,-0.017,1.002,1.038,0.916,-0.244
-0.022,-0.017,1.001,1.526,1.038,-0.183
-0.022,-0.018,1.001,1.343,0.916,-0.244

-0.101,-1.801,1.003,6.226,9.399,-69.397
-0.085,-2.053,0.998,5.493,6.348,-33.691
-0.093,-2.158,1.008,4.089,1.648,7.874
-0.087,-2.108,1.001,3.357,1.282,51.086
-0.091,-1.851,0.993,2.625,2.319,96.008
-0.128,-1.582,0.993,-0.977,-0.366,134.216
-0.131,-1.079,0.991,-1.892,-3.967,159.607
-0.093,-0.764,0.991,0.366,-7.385,173.950
-0.087,-0.256,1.040,1.160,-12.085,168.701
-0.053,0.211,1.038,6.165,-11.658,153.992
-0.062,0.482,0.976,4.211,-2.380,128.113
-0.114,0.710,0.994,2.808,-1.099,101.624
-0.272,1.190,1.000,0.549,0.244,74.463
-0.300,1.051,1.017,-0.488,1.343,67.871
-0.462,1.346,0.987,-2.686,2.075,68.176
-0.215,1.899,0.967,-3.235,1.099,71.594
-0.198,1.756,0.989,-6.226,0.610,66.589
-0.120,1.967,1.009,-6.226,3.174,42.969
-0.093,1.653,0.998,0.610,2.686,14.587
-0.061,1.254,1.000,3.174,1.648,-8.423
-0.109,1.043,0.996,2.625,2.075,-36.438
-0.125,0.908,1.000,2.136,2.502,-49.744
-0.153,0.640,0.998,2.380,2.258,-48.340
-0.122,0.355,1.000,1.587,1.282,-37.415
-0.123,0.304,1.001,1.587,0.854,-29.541
-0.108,0.253,1.001,1.892,0.244,-19.775
-0.057,0.182,1.001,1.892,0.366,-8.789
-0.026,0.258,1.002,1.709,1.038,-4.822
0.026,0.535,0.996,2.014,1.099,-1.831
-0.020,0.048,1.001,2.380,0.671,3.052
-0.025,-0.016,1.002,1.038,0.854,0.000
-0.023,-0.021,1.003,1.404,0.793,0.244
-0.020,-0.023,1.001,1.465,1.221,0.549
-0.016,-0.022,1.001,1.526,1.282,0.732
-0.014,-0.022,1.001,1.343,1.282,0.916
-0.013,-0.021,1.001,1.038,0.854,0.793
-0.015,-0.020,1.001,0.916,0.793,0.488
-0.019,-0.018,1.001,0.977,0.732,0.061
-0.020,-0.019,1.001,0.916,0.854,-0.183
-0.025,-0.020,1.002,0.854,0.854,-0.244
-0.026,-0.021,1.001,1.160,0.854,-0.061
-0.027,-0.021,1.001,1.160,0.854,-0.122
-0.027,-0.022,1.001,1.160,0.854,-0.122
-0.028,-0.021,1.001,1.038,0.793,-0.244
-0.027,-0.021,1.001,1.038,0.854,-0.305
-0.026,-0.019,1.002,0.977,0.671,-0.183
-0.025,-0.018,1.001,1.038,0.854,-0.122
-0.022,-0.017,1.001,1.099,0.610,-0.183
-0.021,-0.017,1.001,1.038,0.916,-0.061
-0.018,-0.017,1.001,0.916,0.977,-0.061
-0.016,-0.019,1.001,0.854,0.732,-0.061
-0.016,-0.020,1.002,0.916,0.732,-0.183
-0.015,-0.020,1.001,1.038,0.671,-0.183
-0.016,-0.022,1.001,0.732,0.732,-0.122
-0.019,-0.021,1.000,0.916,0.854,-0.183
-0.021,-0.021,1.001,0.977,0.793,-0.305
-0.024,-0.020,1.002,0.916,0.671,-0.244
-0.026,-0.019,1.001,0.977,0.854,-0.061
-0.028,-0.019,1.001,1.038,0.793,-0.122
-0.028,-0.019,1.001,1.099,0.916,-0.122
-0.028,-0.018,1.001,0.854,0.793,0.000
-0.036,-0.005,1.012,0.305,1.038,-0.183
-0.025,-0.013,1.003,-1.587,1.892,-0.549
-0.022,-0.015,1.001,0.671,0.916,-0.244
-0.024,-0.018,1.001,1.404,0.793,-0.183
-0.021,-0.017,1.001,1.099,0.854,-0.305
-0.021,-0.016,1.001,0.977,1.038,-0.244
-0.019,-0.018,1.001,1.038,1.038,-0.122
-0.020,-0.019,1.001,1.038,0.916,-0.061
-0.018,-0.019,1.001,1.160,0.854,-0.183
-0.018,-0.021,1.001,1.160,0.977,-0.183
-0.019,-0.021,1.001,1.160,1.038,-0.061
-0.018,-0.020,1.001,1.038,0.854,-0.305
-0.021,-0.017,1.000,1.099,0.793,-0.244
-0.021,-0.018,1.001,1.099,0.793,-0.244
-0.022,-0.017,1.001,1.099,0.671,-0.122
-0.023,-0.016,1.000,0.916,0.793,-0.183
-0.024,-0.017,1.001,1.099,0.793,-0.183
-0.024,-0.018,1.001,0.977,0.610,-0.183
-0.024,-0.019,1.001,1.038,0.610,-0.122
-0.024,-0.019,1.000,1.038,0.671,-0.244
-0.026,-0.018,1.001,1.038,0.854,-0.244
-0.026,-0.018,1.001,1.038,0.977,-0.183
-0.027,-0.019,1.001,1.099,0.916,-0.122
-0.024,-0.018,1.001,0.793,0.732,-0.305
-0.023,-0.018,1.001,0.977,0.549,-0.183
-0.023,-0.019,1.000,0.854,0.793,-0.244
-0.021,-0.019,1.001,0.854,0.977,-0.244
-0.020,-0.019,1.000,1.038,0.793,-0.244
-0.018,-0.019,1.001,1.099,0.793,-0.244
-0.019,-0.018,1.001,1.038,0.671,-0.305
-0.019,-0.017,1.001,1.099,0.793,-0.244
-0.021,-0.016,1.000,1.038,0.793,-0.244
-0.022,-0.016,1.001,1.038,0.549,0.000
-0.022,-0.017,1.001,1.099,0.854,-0.244
-0.024,-0.017,1.001,1.221,0.916,-0.305
-0.023,-0.018,1.000,0.977,0.793,-0.244
-0.024,-0.020,1.001,1.038,0.732,-0.244
-0.023,-0.019,1.001,0.977,0.671,-0.244
-0.024,-0.019,1.001,0.916,0.610,-0.183
-0.024,-0.019,1.000,1.038,0.793,-0.305
-0.023,-0.017,1.001,1.160,0.793,-0.305
-0.023,-0.018,1.000,0.977,0.610,-0.244
-0.023,-0.018,1.001,1.038,0.854,-0.183
-0.021,-0.019,1.001,1.160,0.916,-0.183
-0.020,-0.018,1.001,1.221,0.854,-0.122
-0.021,-0.019,1.000,1.160,0.854,-0.183
-0.020,-0.017,1.001,1.282,1.038,0.000
-0.021,-0.016,1.001,1.221,0.916,-0.183
-0.022,-0.016,1.001,1.160,0.854,-0.305
-0.022,-0.016,1.001,1.038,0.854,-0.305
-0.023,-0.017,1.001,1.038,0.916,-0.183
-0.023,-0.019,1.001,1.099,0.732,-0.183
-0.023,-0.020,1.001,1.160,0.916,0.061
-0.023,-0.020,1.001,1.160,0.793,-0.122
-0.023,-0.019,1.001,1.099,0.732,-0.244
-0.023,-0.018,1.001,1.038,0.732,-0.305
-0.023,-0.017,1.001,1.099,0.671,-0.244
-0.023,-0.017,1.001,1.099,0.671,-0.183

-0.228,-1.545,1.008,3.052,2.197,-36.560
-0.164,-1.623,1.011,2.014,1.648,-7.446
-0.099,-1.718,1.008,2.258,1.526,23.499
-0.049,-1.765,1.009,1.709,1.892,52.368
-0.084,-1.645,1.008,1.770,2.441,71.350
-0.093,-1.508,1.006,-0.305,2.441,92.224
-0.081,-1.281,1.002,-0.977,1.343,112.305
-0.061,-0.926,1.003,0.610,-0.366,123.535
-0.000,-0.878,1.014,0.610,-2.319,129.456
-0.068,-0.550,1.009,3.418,-3.967,116.394
-0.083,-0.130,1.002,3.113,-3.418,101.501
-0.057,0.027,0.985,-4.150,-1.160,95.398
-0.083,0.467,0.992,-6.409,0.488,81.604
-0.200,0.515,1.012,-0.305,0.671,64.636
-0.267,0.831,1.001,5.432,1.709,57.861
-0.163,0.759,0.983,3.235,0.305,70.313
-0.115,1.245,0.975,-4.456,-2.625,78.796
-0.073,1.524,1.000,-1.404,-5.127,70.801
0.013,1.547,0.998,5.554,-1.770,67.017
-0.047,1.663,0.999,7.568,-3.479,63.110
0.060,1.664,0.998,3.357,-1.221,55.481
0.057,1.591,0.992,2.197,-0.122,32.043
0.033,1.365,0.992,1.892,0.916,-0.061
-0.098,1.070,0.996,1.038,0.916,-27.039
-0.151,0.772,0.998,0.793,1.282,-38.574
-0.159,0.557,1.000,0.732,1.282,-40.283
-0.156,0.402,1.000,0.977,1.282,-36.865
-0.133,0.278,1.000,1.038,0.977,-31.067
-0.150,0.225,1.000,1.282,1.160,-22.644
-0.160,0.240,1.000,1.282,1.404,-13.367
-0.161,0.237,1.001,1.404,1.282,-5.432
-0.192,0.253,0.998,1.282,0.671,0.488
-0.037,0.003,1.004,1.282,0.488,1.648
-0.032,-0.009,1.001,1.282,0.610,0.000
-0.033,-0.005,1.000,1.404,0.793,0.000
-0.032,-0.007,1.000,1.587,0.916,0.244
-0.027,-0.011,1.001,1.648,1.099,0.427
-0.019,-0.020,1.001,1.343,1.099,0.305
-0.017,-0.024,1.002,1.282,1.038,0.061
-0.016,-0.026,1.000,1.221,1.038,-0.061
-0.017,-0.025,1.000,1.221,0.854,-0.061
-0.021,-0.021,1.001,1.282,0.793,-0.183
-0.023,-0.018,1.002,1.038,1.099,-0.122
-0.024,-0.017,1.001,1.038,0.854,0.061
-0.023,-0.019,1.001,1.099,0.977,0.000
-0.020,-0.021,1.001,1.221,0.977,0.000
-0.019,-0.023,1.001,1.038,0.732,-0.122
-0.019,-0.022,1.002,1.038,0.671,-0.061
-0.021,-0.018,1.001,1.282,0.854,0.000
-0.024,-0.014,1.000,1.099,0.854,-0.305
-0.027,-0.010,1.001,1.099,0.793,-0.427
-0.028,-0.010,1.002,1.099,0.854,-0.244
-0.027,-0.012,1.001,1.221,0.671,-0.244
-0.026,-0.019,1.003,1.160,0.610,-0.244
-0.025,-0.023,1.001,1.160,0.793,-0.061
-0.022,-0.026,1.001,0.977,0.732,-0.122
-0.023,-0.026,1.001,1.099,0.793,-0.366
-0.026,-0.023,1.001,0.977,0.732,-0.244
-0.026,-0.018,1.001,1.160,0.854,-0.305
-0.028,-0.014,1.002,0.793,0.793,-0.305
-0.027,-0.010,1.001,1.099,0.916,-0.183
-0.024,-0.011,1.001,0.854,0.916,-0.122
-0.021,-0.014,1.000,0.977,0.793,-0.183
-0.019,-0.017,1.000,1.160,0.793,-0.244
-0.017,-0.019,1.001,1.038,0.916,-0.061
-0.017,-0.021,1.003,1.038,0.793,-0.122
-0.022,-0.019,1.001,1.221,1.099,-0.183
-0.025,-0.019,1.000,1.221,1.038,-0.244
-0.026,-0.018,1.001,1.160,0.916,-0.061
-0.025,-0.018,1.001,1.221,0.732,-0.061
-0.024,-0.020,1.001,1.221,0.732,-0.061
-0.022,-0.021,1.001,1.221,0.793,-0.122
-0.022,-0.021,1.001,1.282,0.977,-0.061
-0.023,-0.019,1.000,1.099,1.038,-0.183
-0.023,-0.017,1.001,1.038,0.793,0.000
-0.024,-0.015,1.001,1.099,0.793,-0.122
-0.025,-0.012,1.001,1.221,0.854,-0.366
-0.026,-0.013,1.001,1.282,0.916,-0.305
-0.025,-0.015,1.001,1.526,0.793,-0.122
-0.023,-0.019,1.001,1.282,0.854,-0.244
-0.022,-0.021,1.001,1.099,0.977,-0.122
-0.020,-0.023,1.001,1.221,0.732,-0.061
-0.022,-0.022,1.000,1.099,0.610,-0.183
-0.024,-0.021,1.001,1.038,0.854,-0.305
-0.025,-0.018,1.001,1.038,0.854,-0.305
-0.026,-0.016,1.001,1.099,0.793,-0.244
-0.026,-0.015,1.001,0.916,0.732,-0.305
-0.025,-0.016,1.001,0.793,0.793,-0.305
-0.025,-0.016,1.001,0.977,0.916,-0.244
-0.023,-0.018,1.001,1.038,0.854,-0.122
-0.024,-0.020,1.000,1.160,0.732,-0.122
-0.023,-0.018,1.001,1.343,0.732,-0.122
-0.023,-0.017,1.001,1.099,0.793,-0.305
-0.024,-0.017,1.001,0.977,0.793,-0.427
-0.024,-0.018,1.001,1.038,0.793,-0.244
-0.024,-0.018,1.000,0.977,0.732,-0.244
-0.024,-0.020,1.001,1.099,0.732,-0.366
-0.023,-0.019,1.001,1.160,0.916,-0.183
-0.023,-0.020,1.001,0.977,0.793,-0.183
-0.025,-0.018,1.001,0.977,0.732,0.000
-0.025,-0.017,1.001,1.038,0.793,-0.183
-0.026,-0.015,1.001,1.160,0.671,-0.244
-0.027,-0.014,1.001,0.977,0.793,0.000
-0.025,-0.015,1.001,1.160,0.977,-0.122
-0.025,-0.016,1.001,1.160,0.732,-0.122
-0.024,-0.017,1.001,1.221,0.854,-0.061
-0.022,-0.019,1.001,1.221,0.916,-0.122
-0.021,-0.020,1.001,1.099,0.854,0.000
-0.022,-0.020,1.001,1.038,0.793,-0.244
-0.022,-0.019,1.001,1.160,0.793,-0.244
-0.021,-0.019,1.001,1.160,0.854,-0.183
-0.022,-0.017,1.001,0.977,1.038,-0.244
-0.023,-0.017,1.001,0.916,0.977,-0.183
-0.024,-0.017,1.001,0.854,0.854,-0.366
-0.023,-0.018,1.000,0.977,0.854,-0.183
-0.024,-0.017,1.001,1.099,0.916,-0.061
-0.026,-0.017,1.000,1.160,0.732,-0.244
-0.025,-0.017,1.001,1.160,0.671,-0.305
-0.026,-0.016,1.001,1.160,0.671,-0.183

-0.128,-1.453,1.008,5.066,7.141,-43.640
-0.149,-1.542,1.004,5.127,6.897,-5.310
-0.067,-1.708,0.998,4.150,4.089,33.936
-0.046,-1.656,1.001,2.197,-0.671,61.890
-0.094,-1.534,1.010,0.610,-2.930,81.909
-0.117,-1.228,1.004,-0.610,-2.563,96.497
-0.152,-0.665,1.011,0.366,-3.967,114.014
-0.046,-0.762,0.996,1.587,-6.287,135.071
-0.059,-0.288,1.045,0.610,-6.409,134.155
-0.069,0.110,1.018,6.165,-4.700,123.291
-0.068,0.468,1.001,3.601,-1.343,117.920
-0.028,0.471,0.987,2.258,-1.465,111.023
-0.120,0.758,0.994,0.977,-0.061,91.614
-0.149,1.022,0.983,2.747,0.854,77.942
-0.031,0.529,1.038,-2.747,1.648,75.012
-0.189,1.091,1.001,-6.226,1.282,64.636
0.034,1.463,0.976,-3.601,2.625,61.157
-0.094,1.495,0.996,-7.751,4.578,54.443
-0.036,1.151,1.002,-3.601,1.831,43.457
-0.073,0.984,0.999,1.526,1.770,14.038
-0.163,1.042,0.996,3.479,1.587,-9.460
-0.123,0.530,1.002,4.211,1.221,-9.949
-0.164,0.491,1.002,3.235,0.671,-10.925
-0.165,0.490,0.996,2.502,1.099,-11.597
-0.103,0.420,1.000,2.747,1.831,-13.367
-0.089,0.234,0.998,2.869,2.075,-16.235
-0.124,0.128,1.000,2.258,1.526,-16.479
-0.136,0.132,1.000,2.014,0.671,-14.099
-0.124,0.138,1.002,1.831,1.221,-8.484
-0.134,0.234,1.000,1.892,3.235,-3.357
-0.104,0.203,1.000,1.831,2.380,2.502
-0.094,0.213,1.001,1.526,1.221,4.211
-0.073,0.102,1.002,1.282,0.732,4.089
-0.035,0.186,1.003,1.465,1.587,1.587
-0.016,0.191,0.999,1.648,2.991,-3.052
-0.013,0.120,0.999,1.587,2.441,-2.502
-0.019,0.106,1.000,1.648,1.770,0.122
0.000,0.162,1.000,1.404,1.404,1.709
-0.010,0.438,0.995,1.282,1.465,2.625
-0.022,0.029,1.002,1.160,1.221,2.808
-0.024,-0.007,1.004,0.977,0.916,-0.427
-0.026,-0.012,1.001,1.343,1.160,-0.244
-0.026,-0.016,1.000,1.343,1.221,-0.183
-0.024,-0.021,1.001,1.343,1.038,0.061
-0.021,-0.026,1.000,1.343,0.793,-0.061
-0.019,-0.027,1.001,1.282,0.793,0.000
-0.018,-0.027,1.001,1.099,0.916,-0.305
-0.018,-0.024,1.001,0.793,0.793,-0.244
-0.018,-0.020,1.001,1.160,0.977,-0.122
-0.018,-0.017,1.001,1.038,0.732,-0.183
-0.017,-0.016,1.001,0.793,0.671,-0.244
-0.016,-0.016,1.001,0.793,0.854,-0.244
-0.016,-0.017,1.001,1.038,0.854,-0.122
-0.015,-0.019,1.001,1.038,0.977,-0.244
-0.017,-0.020,1.001,1.221,1.038,-0.122
-0.020,-0.018,1.001,1.038,0.793,-0.122
-0.022,-0.018,1.001,1.221,0.854,-0.244
-0.025,-0.016,1.001,1.160,0.854,-0.122
-0.027,-0.018,1.001,1.221,1.038,-0.183
-0.027,-0.020,1.002,1.343,0.916,-0.183
-0.026,-0.023,1.001,1.343,0.977,-0.061
-0.023,-0.023,1.001,1.160,0.793,-0.061
-0.022,-0.025,1.001,1.099,0.916,0.000
-0.020,-0.023,1.000,1.160,0.916,0.061
-0.019,-0.020,1.001,1.282,0.793,0.000
-0.017,-0.017,1.001,1.221,0.793,-0.061
-0.016,-0.015,1.000,1.160,0.793,-0.183
-0.016,-0.015,1.001,1.038,0.671,-0.183
-0.014,-0.017,1.001,0.977,0.671,-0.183
-0.013,-0.018,1.000,1.099,0.793,-0.305
-0.014,-0.020,1.000,1.282,0.854,-0.305
-0.015,-0.021,1.000,1.038,0.793,-0.366
-0.018,-0.022,1.000,1.221,0.916,-0.305
-0.021,-0.021,1.001,1.160,0.854,-0.122
-0.024,-0.022,1.001,1.038,0.793,-0.122
-0.025,-0.021,1.001,1.160,0.793,-0.061
-0.026,-0.020,1.001,1.160,0.854,-0.244
-0.026,-0.019,1.000,1.282,0.977,-0.244
-0.025,-0.018,1.001,1.160,0.977,0.000
-0.023,-0.018,1.001,1.038,0.610,-0.061
-0.021,-0.018,1.001,1.038,0.732,-0.305
-0.019,-0.018,1.001,1.038,0.916,-0.366
-0.017,-0.018,1.001,1.038,0.916,-0.183
-0.017,-0.018,1.001,0.916,0.916,-0.183
-0.017,-0.019,1.001,0.977,0.916,-0.122
-0.016,-0.020,1.000,0.977,1.038,-0.305
-0.018,-0.019,1.000,0.977,1.099,-0.305
-0.019,-0.020,1.001,1.038,0.977,-0.122
-0.019,-0.020,1.001,1.160,0.916,-0.122
-0.021,-0.020,1.000,1.099,0.916,-0.122
-0.021,-0.019,1.001,1.038,0.854,-0.122
-0.021,-0.018,1.001,1.160,0.916,-0.366
-0.023,-0.018,1.001,0.977,1.038,-0.244
-0.023,-0.017,1.001,1.099,0.916,-0.305
-0.023,-0.018,1.001,1.160,0.732,-0.305
-0.021,-0.019,1.001,1.099,0.732,-0.061
-0.019,-0.020,1.001,1.221,0.854,-0.244
-0.018,-0.020,1.001,1.099,0.854,-0.183
-0.017,-0.021,1.001,0.916,0.732,-0.122
-0.018,-0.020,1.001,1.038,0.854,-0.244
-0.019,-0.019,1.001,0.977,0.916,-0.305
-0.020,-0.018,1.001,1.038,0.916,-0.366
-0.019,-0.018,1.001,0.977,0.916,-0.183
-0.020,-0.018,1.001,1.038,1.038,-0.305
-0.021,-0.019,1.001,1.038,0.854,-0.183
-0.021,-0.017,1.001,0.977,0.793,-0.061
-0.022,-0.018,1.001,1.160,0.854,-0.061
-0.021,-0.019,1.001,1.282,0.854,-0.061
-0.022,-0.019,1.001,1.221,0.916,-0.183
-0.021,-0.019,1.001,1.282,0.977,-0.122
-0.021,-0.020,1.002,1.160,0.732,-0.061
-0.021,-0.020,1.000,1.099,0.916,-0.244
-0.020,-0.021,1.001,1.038,1.038,-0.183
-0.019,-0.020,1.001,0.977,0.977,-0.122
-0.018,-0.019,1.001,1.099,0.732,-0.183
-0.019,-0.019,1.001,1.038,0.671,-0.061
-0.019,-0.018,1.001,1.160,0.671,-0.061
-0.019,-0.018,1.001,1.282,0.793,-0.122
-0.020,-0.017,1.001,1.099,0.732,-0.061

-0.157,-1.542,1.007,3.235,3.052,-29.236
-0.158,-1.624,1.010,3.784,2.197,0.061
-0.215,-1.429,1.007,3.662,1.465,31.067
-0.167,-1.554,0.998,2.808,0.793,68.604
-0.205,-1.538,0.997,-0.488,-0.916,93.018
-0.249,-1.099,1.002,-2.075,-2.991,106.018
-0.267,-0.701,1.007,-1.038,-4.456,124.207
-0.167,-0.657,1.009,0.305,-5.127,140.869
-0.179,-0.188,1.031,4.517,-6.226,133.301
-0.053,0.006,1.005,6.042,-3.357,114.990
-0.180,0.047,0.990,1.404,0.671,93.689
-0.237,0.474,1.001,-1.892,3.967,71.228
-0.260,0.593,0.988,0.427,7.812,73.364
-0.088,-0.125,1.006,2.380,6.165,86.243
-0.246,0.642,0.986,-0.977,0.366,75.500
-0.022,0.992,0.997,-6.653,0.000,81.909
-0.107,1.287,0.983,-3.418,1.343,87.708
0.007,1.344,1.018,5.493,-5.432,90.698
0.013,1.260,1.002,6.042,-3.479,78.979
0.012,1.517,0.993,2.197,-1.465,56.885
0.012,1.257,0.997,2.197,-0.122,35.278
-0.061,1.270,0.998,1.587,-0.061,9.033
-0.057,1.080,0.993,1.038,0.916,-9.277
-0.093,1.023,0.995,1.282,1.099,-17.944
-0.021,0.986,0.993,1.648,1.526,-18.433
-0.016,0.883,0.997,1.770,1.282,-19.592
-0.022,0.960,0.996,1.648,1.038,-20.508
-0.159,0.785,1.000,1.526,1.587,-13.672
-0.348,0.600,0.991,1.526,2.197,-12.085
-0.051,0.032,1.004,1.465,0.854,-5.310
-0.032,0.000,1.005,1.465,0.488,-0.427
-0.038,-0.002,1.000,1.953,0.427,0.000
-0.034,-0.010,1.001,1.831,0.793,0.183
-0.029,-0.016,1.001,1.282,1.221,0.183
-0.022,-0.032,1.001,1.160,1.526,0.000
-0.023,-0.032,1.002,0.793,1.160,-0.183
-0.026,-0.029,1.001,0.916,1.038,-0.061
-0.028,-0.023,1.000,0.977,0.916,-0.061
-0.029,-0.017,1.001,0.977,0.916,-0.061
-0.027,-0.013,1.003,1.282,1.038,0.000
-0.020,-0.015,1.000,1.343,1.038,0.122
-0.012,-0.017,1.000,1.282,0.916,0.122
-0.007,-0.021,1.002,1.221,0.916,0.122
-0.003,-0.023,1.000,1.221,0.732,0.000
-0.005,-0.022,1.001,1.038,0.854,0.000
-0.009,-0.018,1.001,1.038,0.732,-0.244
-0.019,-0.014,1.000,0.916,0.610,-0.549
-0.026,-0.011,1.000,1.099,0.549,-0.610
-0.030,-0.013,1.002,0.977,0.549,-0.366
-0.032,-0.017,1.001,1.221,0.671,-0.244
-0.030,-0.022,1.001,1.099,0.610,-0.122
-0.028,-0.027,1.000,1.099,0.549,-0.122
-0.028,-0.027,1.000,1.038,0.671,-0.122
-0.027,-0.025,1.000,1.099,0.793,-0.183
-0.029,-0.019,1.000,1.099,1.038,-0.305
-0.030,-0.012,1.001,1.038,0.854,-0.244
-0.029,-0.008,1.001,1.099,0.671,-0.183
-0.027,-0.009,1.001,1.038,0.916,-0.183
-0.023,-0.011,1.000,0.854,0.854,0.061
-0.018,-0.017,1.000,1.038,0.977,-0.122
-0.014,-0.021,1.000,0.977,0.916,-0.061
-0.014,-0.023,1.000,1.038,0.793,-0.122
-0.015,-0.023,1.001,0.977,1.038,-0.061
-0.018,-0.021,1.002,1.099,1.038,-0.305
-0.023,-0.019,1.001,1.099,0.854,-0.183
-0.024,-0.017,1.001,1.099,0.793,-0.244
-0.025,-0.018,1.001,1.099,0.916,-0.244
-0.024,-0.019,1.000,1.160,0.977,0.122
-0.022,-0.020,1.001,1.282,0.793,-0.061
-0.022,-0.020,1.001,1.038,0.671,-0.122
-0.023,-0.019,1.001,0.977,0.549,-0.244
-0.024,-0.016,1.000,0.977,0.610,-0.122
-0.025,-0.015,1.000,1.038,0.793,-0.305
-0.025,-0.013,1.000,1.221,0.854,-0.244
-0.025,-0.015,1.001,1.099,0.732,-0.244
-0.021,-0.018,1.001,0.977,0.854,-0.244
-0.021,-0.021,1.001,1.038,0.732,-0.244
-0.020,-0.023,1.001,1.099,0.854,-0.183
-0.020,-0.023,1.000,1.221,0.793,-0.305
-0.021,-0.020,1.001,1.221,0.854,-0.305
-0.023,-0.018,1.001,1.099,0.732,-0.183
-0.026,-0.015,1.001,1.038,0.732,-0.305
-0.026,-0.014,1.001,1.099,0.793,-0.183
-0.024,-0.015,1.001,1.160,0.732,-0.305
-0.023,-0.017,1.002,1.038,0.732,-0.183
-0.021,-0.019,1.000,1.160,0.977,-0.183
-0.019,-0.019,1.000,1.160,0.916,-0.305
-0.019,-0.020,1.000,1.160,0.916,-0.244
-0.020,-0.019,1.001,1.221,0.916,-0.305
-0.021,-0.019,1.001,1.099,0.610,-0.244
-0.022,-0.019,1.002,1.099,0.793,-0.183
-0.022,-0.018,1.000,1.282,1.038,-0.122
-0.023,-0.018,1.000,1.160,0.793,-0.122
-0.023,-0.019,1.001,1.038,0.854,-0.122
-0.024,-0.018,1.001,1.038,0.977,-0.244
-0.025,-0.018,1.001,0.916,0.732,-0.122
-0.026,-0.017,1.003,1.038,0.793,-0.183
-0.026,-0.016,1.001,1.282,1.038,-0.183
-0.025,-0.016,1.001,1.099,1.038,-0.183
-0.024,-0.015,1.001,1.038,0.916,-0.244
-0.022,-0.018,1.001,1.099,0.854,-0.244
-0.021,-0.019,1.000,1.099,0.854,-0.183
-0.020,-0.020,1.002,1.038,0.671,-0.183
-0.019,-0.021,1.001,1.221,0.854,-0.305
-0.018,-0.019,1.001,1.160,0.916,-0.366
-0.020,-0.018,1.001,0.916,0.916,-0.122
-0.021,-0.017,1.000,1.038,0.916,-0.183
-0.023,-0.016,1.000,1.160,0.916,-0.183
-0.025,-0.016,1.002,1.221,0.854,-0.244
-0.025,-0.016,1.001,1.160,1.038,-0.305
-0.026,-0.017,1.001,1.038,0.977,-0.122
-0.026,-0.018,1.001,1.160,0.977,-0.183
-0.025,-0.019,1.000,0.977,1.038,-0.244
-0.024,-0.020,1.001,1.038,0.916,-0.183
-0.023,-0.020,1.001,1.099,0.793,-0.244
-0.023,-0.019,1.001,1.099,0.793,-0.244
-0.021,-0.018,1.000,1.038,0.793,-0.183
-0.020,-0.017,1.001,1.160,0.671,-0.122
-0.021,-0.017,1.001,1.038,0.732,-0.305

-0.170,-1.415,1.009,2.869,3.540,-25.635
-0.157,-1.315,0.999,2.869,2.747,12.939
-0.116,-1.261,1.001,1.770,1.709,56.335
-0.087,-1.228,1.008,0.549,-0.244,90.576
-0.104,-1.209,1.004,-1.221,-1.770,109.436
-0.121,-0.955,1.002,-0.854,-1.892,114.502
-0.137,-0.679,1.000,-0.122,-1.648,122.253
-0.105,-0.669,1.007,1.038,-3.540,133.606
-0.112,-0.292,1.025,4.700,-4.578,136.169
-0.083,-0.152,1.011,5.432,-1.709,134.705
-0.092,-0.118,0.985,-0.793,0.488,131.348
-0.092,0.255,0.994,-4.639,2.441,122.925
-0.108,0.588,1.004,-3.296,4.333,121.216
-0.002,0.451,1.003,1.404,4.089,123.108
-0.035,0.706,0.989,2.625,0.671,107.849
0.091,1.273,0.975,-2.136,0.122,83.313
-0.095,1.264,0.969,-6.775,3.845,62.012
-0.057,1.462,1.007,-1.038,-4.089,58.044
-0.136,1.259,1.002,6.470,-0.977,53.467
-0.105,1.111,1.000,6.531,-0.488,47.241
-0.173,1.203,0.996,2.747,-0.366,37.109
-0.175,1.036,0.997,2.075,-0.122,31.067
-0.116,0.824,0.998,1.282,0.366,23.743
-0.091,0.813,0.996,0.916,0.671,3.052
-0.148,0.709,0.997,1.465,1.099,-16.174
-0.173,0.579,0.997,1.221,1.221,-23.682
-0.153,0.439,0.998,1.038,1.038,-23.621
-0.177,0.412,1.002,1.038,1.221,-21.851
-0.191,0.384,0.997,1.099,1.953,-18.127
-0.261,0.373,0.997,1.099,1.770,-9.644
-0.258,0.266,0.994,1.221,1.221,-2.258
-0.053,0.001,1.008,1.587,-0.732,2.808
-0.030,-0.010,1.001,1.526,0.793,0.488
-0.028,-0.009,0.998,1.526,0.732,0.183
-0.026,-0.014,1.000,1.709,0.732,0.183
-0.026,-0.018,1.001,1.709,0.854,0.061
-0.022,-0.022,1.004,1.282,1.160,0.061
-0.022,-0.023,1.001,1.099,1.587,-0.183
-0.024,-0.021,1.000,1.160,1.648,-0.122
-0.025,-0.018,1.001,1.038,1.343,-0.122
-0.025,-0.015,1.001,1.099,1.160,-0.183
-0.023,-0.015,1.003,0.977,0.854,-0.122
-0.019,-0.017,1.000,0.916,0.793,0.183
-0.014,-0.020,1.001,1.099,0.977,0.183
-0.009,-0.022,1.000,1.526,1.221,0.122
-0.006,-0.024,1.001,1.282,0.916,-0.061
-0.007,-0.021,1.001,1.160,0.732,-0.305
-0.013,-0.018,1.001,0.916,0.610,-0.549
-0.020,-0.013,1.001,0.793,0.610,-0.427
-0.024,-0.011,1.001,0.977,0.549,-0.305
-0.028,-0.011,1.001,1.099,0.549,-0.244
-0.030,-0.014,1.002,0.977,0.488,-0.061
-0.029,-0.018,1.001,1.038,0.671,-0.183
-0.030,-0.022,1.001,0.977,0.610,-0.305
-0.028,-0.023,1.000,0.977,0.610,-0.366
-0.027,-0.022,1.002,0.854,0.488,-0.305
-0.028,-0.018,1.001,1.099,0.732,-0.305
-0.027,-0.015,1.000,0.977,0.671,-0.305
-0.026,-0.013,1.001,0.793,0.610,-0.244
-0.023,-0.013,1.001,0.916,0.732,-0.183
-0.019,-0.016,1.001,1.160,0.916,-0.305
-0.015,-0.018,1.002,1.160,0.793,-0.366
-0.013,-0.020,1.001,1.099,0.977,-0.061
-0.015,-0.019,1.000,1.099,0.854,0.061
-0.016,-0.019,1.000,0.977,0.793,0.000
-0.022,-0.017,1.001,1.038,0.793,-0.244
-0.024,-0.016,1.001,1.099,0.793,-0.244
-0.027,-0.015,1.002,1.221,0.732,-0.122
-0.028,-0.016,1.000,1.343,0.916,-0.061
-0.027,-0.018,1.001,1.221,0.854,0.000
-0.026,-0.020,1.001,1.221,0.793,-0.122
-0.024,-0.021,1.001,1.221,0.732,-0.183
-0.023,-0.021,1.000,1.160,0.610,-0.183
-0.022,-0.019,1.001,1.160,0.732,-0.061
-0.021,-0.016,1.001,1.343,0.793,0.000
-0.021,-0.015,1.001,1.160,0.854,-0.122
-0.020,-0.015,1.000,1.221,0.916,-0.183
-0.018,-0.017,1.000,1.038,0.793,-0.183
-0.018,-0.017,1.001,1.099,0.732,-0.244
-0.017,-0.019,1.001,1.038,0.671,-0.061
-0.018,-0.021,1.000,1.343,0.793,0.061
-0.021,-0.019,1.000,1.343,0.793,-0.122
-0.022,-0.018,1.000,1.099,0.793,-0.183
-0.026,-0.017,1.001,1.099,0.793,-0.122
-0.027,-0.015,1.001,1.038,0.610,-0.183
-0.028,-0.016,1.001,1.221,0.793,-0.244
-0.026,-0.017,1.000,1.282,0.977,-0.244
-0.024,-0.017,1.001,1.160,0.977,-0.305
-0.023,-0.019,1.000,0.977,0.732,-0.183
-0.022,-0.018,1.001,0.977,0.977,-0.122
-0.021,-0.018,1.001,1.038,0.977,-0.122
-0.019,-0.018,1.001,1.099,0.977,-0.244
-0.020,-0.017,1.001,1.099,0.793,-0.366
-0.021,-0.016,1.001,1.282,0.854,-0.305
-0.021,-0.016,1.001,1.099,0.732,-0.305
-0.021,-0.018,1.000,1.099,0.854,-0.122
-0.021,-0.018,1.001,1.282,0.977,-0.244
-0.023,-0.019,1.001,1.099,0.916,-0.122
-0.022,-0.020,1.001,1.221,0.916,-0.183
-0.023,-0.019,1.001,1.221,0.916,-0.183
-0.023,-0.017,1.000,1.099,1.099,-0.183
-0.025,-0.016,1.001,1.160,0.916,0.000
-0.025,-0.016,1.001,0.977,0.916,-0.061
-0.023,-0.016,1.001,1.099,0.977,-0.061
-0.022,-0.019,1.000,1.160,1.038,-0.183
-0.021,-0.019,1.001,1.038,1.099,-0.366
-0.020,-0.020,1.001,0.977,0.854,-0.305
-0.021,-0.019,1.001,0.977,0.732,-0.244
-0.022,-0.019,1.000,0.977,0.732,-0.061
-0.021,-0.017,1.000,0.977,0.732,-0.061
-0.023,-0.016,1.001,0.916,0.854,-0.183
-0.022,-0.017,1.002,1.038,0.732,-0.366
-0.023,-0.017,1.001,1.099,0.732,-0.305
-0.022,-0.018,1.000,1.099,0.854,-0.183
-0.023,-0.018,1.001,0.916,0.854,-0.183
-0.023,-0.018,1.001,1.038,0.916,-0.122
-0.023,-0.018,1.001,1.038,0.916,0.000
-0.022,-0.017,1.001,1.160,0.977,-0.244
-0.023,-0.018,1.001,1.160,0.854,-0.305

0.098,1.491,0.993,-0.061,2.014,22.217
0.110,1.246,1.036,1.648,2.991,13.550
0.047,1.217,1.010,1.587,1.770,2.380
-0.059,1.067,0.959,1.526,0.793,1.770
0.079,0.727,1.015,0.488,0.977,0.366
0.001,0.875,1.000,1.892,0.488,-8.118
-0.069,0.952,1.001,1.648,0.549,-14.160
-0.086,0.816,0.994,1.587,0.549,-13.611
-0.094,0.549,0.996,1.404,0.732,-10.376
-0.126,0.405,1.006,1.526,1.038,-11.963
-0.247,0.620,1.003,1.587,1.038,-14.038
-0.060,0.064,1.002,1.526,0.671,-5.798
-0.034,-0.010,1.001,0.854,0.793,-0.366
-0.031,-0.017,1.001,1.099,0.977,-0.305
-0.029,-0.020,1.001,1.099,0.977,-0.183
-0.029,-0.022,1.000,1.221,0.916,0.000
-0.027,-0.024,1.001,1.221,0.977,-0.244
-0.026,-0.023,1.001,0.854,0.916,-0.183
-0.027,-0.023,1.001,0.793,1.038,-0.244
-0.028,-0.020,1.001,0.793,1.038,-0.366
-0.028,-0.020,1.001,0.793,1.038,-0.122
-0.028,-0.020,1.002,0.916,1.099,-0.061
-0.026,-0.020,1.001,0.854,1.038,-0.061
-0.022,-0.023,1.001,0.854,0.854,0.061
-0.020,-0.025,1.001,1.160,0.671,0.000
-0.019,-0.026,1.001,1.099,0.793,-0.183
-0.018,-0.026,1.002,0.916,0.854,-0.488
-0.019,-0.024,1.001,1.160,0.916,-0.427
-0.021,-0.021,1.000,1.160,0.854,-0.488
-0.023,-0.019,1.000,1.038,0.793,-0.366
-0.024,-0.018,1.001,1.160,0.671,-0.183
-0.025,-0.019,1.002,0.977,0.610,-0.183
-0.027,-0.021,1.001,1.038,0.793,-0.122
-0.027,-0.022,1.001,1.160,0.854,-0.183
-0.029,-0.024,1.001,1.099,0.854,-0.305
-0.030,-0.023,1.001,0.977,0.732,-0.061
-0.032,-0.022,1.001,1.099,0.793,-0.305
-0.031,-0.021,1.001,1.160,0.854,-0.366
-0.032,-0.019,1.001,1.038,0.916,-0.183
-0.030,-0.020,1.001,1.099,0.916,0.000
-0.027,-0.021,1.001,1.282,0.854,-0.061
-0.024,-0.023,1.001,1.282,0.854,0.000
-0.021,-0.023,1.000,1.160,0.977,-0.183
-0.021,-0.022,1.001,1.160,0.793,-0.122
-0.021,-0.022,1.001,0.977,0.977,-0.183
-0.022,-0.021,1.001,1.221,1.038,-0.244
-0.024,-0.020,1.002,1.221,1.038,-0.244
-0.025,-0.019,1.001,0.916,1.038,-0.122
-0.026,-0.021,1.001,0.916,0.854,-0.305
-0.027,-0.022,1.001,0.793,0.854,-0.183
-0.027,-0.024,1.001,0.854,0.977,-0.244
-0.028,-0.024,1.001,0.793,0.854,-0.305
-0.027,-0.024,1.001,1.099,0.793,-0.061
-0.026,-0.022,1.001,1.099,0.732,-0.244
-0.027,-0.022,1.001,1.099,0.793,-0.305
-0.026,-0.019,1.001,1.099,0.793,-0.244
-0.024,-0.018,1.001,1.038,0.916,-0.244
-0.023,-0.020,1.000,1.160,0.916,-0.183
-0.022,-0.021,1.001,1.221,0.671,0.000
-0.021,-0.023,1.001,1.099,0.610,-0.244
-0.021,-0.022,1.001,1.038,0.854,-0.244
-0.024,-0.022,1.001,0.916,0.854,-0.183
-0.025,-0.022,1.001,0.854,0.854,-0.122
-0.027,-0.023,1.001,0.916,0.732,-0.122
-0.029,-0.021,1.001,1.160,0.977,-0.244
-0.030,-0.021,1.001,0.854,0.977,-0.244
-0.030,-0.022,1.002,0.916,0.732,-0.305
-0.029,-0.023,1.001,0.793,0.793,-0.366
-0.028,-0.022,1.001,0.854,0.793,-0.244
-0.026,-0.023,1.002,1.038,0.732,-0.183
-0.026,-0.021,1.001,1.099,0.977,-0.122
-0.025,-0.020,1.001,0.854,0.671,-0.061
-0.024,-0.020,1.001,0.977,0.549,-0.122
-0.023,-0.019,1.002,0.916,0.610,-0.183
-0.024,-0.020,1.001,0.977,0.610,-0.305
-0.022,-0.024,1.001,0.977,0.732,-0.305
-0.022,-0.022,1.001,1.343,0.916,-0.122
-0.024,-0.024,1.001,1.038,0.793,-0.244
-0.024,-0.025,1.001,0.977,0.732,-0.122
-0.026,-0.019,1.006,0.549,1.038,-0.244
-0.027,-0.021,1.000,0.671,0.977,-0.305
-0.029,-0.021,1.001,0.854,0.916,-0.244
-0.029,-0.021,1.002,1.038,0.977,0.000
-0.028,-0.020,1.001,1.099,0.793,-0.183
-0.028,-0.020,1.001,0.977,0.793,-0.305
-0.027,-0.021,1.001,0.977,0.732,-0.244
-0.027,-0.020,1.001,0.977,0.793,-0.244
-0.026,-0.021,1.003,0.916,0.854,0.000
-0.025,-0.021,1.001,1.038,0.916,-0.122
-0.024,-0.020,1.000,0.916,0.732,-0.244
-0.024,-0.020,1.001,0.977,0.916,-0.183
-0.023,-0.021,1.001,0.916,0.793,-0.122
-0.023,-0.022,1.002,0.977,0.793,-0.122
-0.023,-0.022,1.001,0.977,0.793,-0.061
-0.024,-0.021,1.000,1.099,0.916,-0.061
-0.025,-0.021,1.001,1.038,0.732,-0.183
-0.026,-0.021,1.001,0.977,0.732,-0.183
-0.026,-0.021,1.001,0.977,0.793,-0.244
-0.027,-0.021,1.001,1.038,0.916,-0.244
-0.027,-0.020,1.001,0.854,0.916,-0.183
-0.028,-0.020,1.001,0.793,0.854,-0.061
-0.028,-0.021,1.001,1.038,0.671,-0.183
-0.027,-0.021,1.001,1.099,0.854,-0.183
-0.026,-0.021,1.001,1.038,0.854,-0.122
-0.025,-0.021,1.001,1.038,0.916,-0.122
-0.025,-0.021,1.001,1.038,0.488,-0.122
-0.025,-0.021,1.002,1.038,0.854,-0.183
-0.024,-0.021,1.001,1.099,1.038,-0.305
-0.024,-0.021,1.001,1.038,0.977,-0.183
-0.025,-0.020,1.001,1.099,0.916,-0.183
-0.025,-0.021,1.002,0.854,0.854,-0.122
-0.025,-0.021,1.001,1.038,0.732,-0.122
-0.026,-0.022,1.000,1.038,0.854,-0.122
-0.027,-0.022,1.001,1.099,0.793,-0.061
-0.026,-0.021,1.002,0.916,0.793,-0.122
-0.027,-0.021,1.001,0.977,0.854,-0.122
-0.025,-0.020,1.000,1.099,0.671,-0.122
-0.026,-0.020,1.000,1.160,0.610,-0.061
-0.025,-0.021,1.001,1.282,0.854,-0.061

0.364,-2.076,1.005,2.258,-0.854,62.256
0.375,-2.241,1.010,2.136,-1.648,101.379
0.172,-1.962,0.994,1.953,-2.258,124.268
-0.055,-1.463,0.978,1.038,-2.136,142.029
-0.183,-1.316,0.990,0.793,-1.587,153.625
-0.341,-0.924,0.996,0.427,-1.465,144.958
-0.425,-0.685,1.037,-0.305,0.122,123.474
-0.511,-0.359,1.021,4.822,0.244,97.717
-0.513,0.128,0.980,3.357,-0.977,77.881
-0.386,0.758,0.992,-1.465,-0.244,62.500
-0.309,0.777,0.997,-2.380,0.427,40.894
-0.437,1.478,1.009,0.366,1.648,5.493
-0.392,1.776,1.003,2.014,1.648,-8.057
-0.374,1.678,0.989,1.099,1.587,-10.376
-0.235,1.524,0.991,-1.770,1.160,-1.526
-0.109,1.347,0.990,-0.916,1.282,-2.747
-0.017,1.375,0.992,0.916,2.197,-10.315
0.016,1.324,1.007,0.854,2.686,-21.545
0.050,1.250,1.009,-0.488,1.953,-21.362
0.106,0.725,0.996,-0.488,1.160,-17.029
0.056,0.409,1.003,0.061,1.404,-21.240
0.041,0.208,1.000,0.610,1.465,-26.794
-0.059,0.148,0.959,0.854,1.160,-29.907
0.002,-0.015,1.016,0.793,1.343,-30.518
-0.099,0.125,1.004,1.526,0.916,-29.663
-0.109,0.184,1.005,1.709,1.099,-25.391
-0.106,0.048,1.004,1.648,0.854,-17.151
-0.081,0.030,1.002,1.465,0.427,-10.925
-0.079,-0.021,0.992,1.465,0.671,-7.385
-0.072,-0.022,1.007,1.465,0.793,-2.380
-0.069,-0.030,1.002,1.404,0.366,1.953
-0.084,0.100,1.001,1.770,0.305,1.892
-0.103,0.281,1.004,1.770,0.549,3.357
-0.071,0.212,1.001,1.465,0.427,10.498
-0.052,-0.011,1.001,0.916,0.488,16.174
-0.043,0.060,1.001,0.916,0.610,12.146
-0.040,0.199,1.000,1.221,0.732,4.028
-0.055,0.221,1.001,1.038,0.854,-1.892
-0.041,0.193,1.002,0.977,1.038,-5.432
-0.025,0.153,1.000,0.854,1.160,-9.216
0.003,0.251,1.004,0.732,0.916,-13.062
0.006,0.343,1.009,1.160,0.793,-15.625
-0.005,0.202,0.998,0.671,1.160,-11.353
-0.027,-0.002,1.003,0.183,1.221,-1.709
-0.028,-0.020,1.000,0.732,0.793,-0.305
-0.026,-0.021,1.001,1.343,0.671,-0.183
-0.024,-0.021,1.001,1.526,0.549,-0.244
-0.022,-0.021,1.001,1.526,0.549,-0.122
-0.022,-0.018,1.001,1.343,0.610,-0.122
-0.025,-0.016,1.000,1.160,0.671,-0.183
-0.026,-0.015,1.001,0.977,0.671,-0.183
-0.028,-0.017,1.001,1.160,0.916,-0.244
-0.029,-0.019,1.001,1.038,0.793,-0.183
-0.029,-0.022,1.001,1.160,0.854,-0.183
-0.028,-0.024,1.001,1.099,0.732,-0.122
-0.028,-0.027,1.001,1.221,0.732,0.000
-0.027,-0.027,1.001,1.282,0.732,-0.305
-0.026,-0.025,1.001,1.343,0.793,-0.122
-0.028,-0.023,1.001,1.160,0.793,-0.122
-0.027,-0.019,1.001,1.099,0.916,-0.305
-0.027,-0.017,1.001,0.977,0.854,-0.183
-0.028,-0.018,1.001,1.038,0.793,-0.183
-0.025,-0.019,1.000,1.099,0.977,-0.122
-0.023,-0.020,1.000,1.221,1.099,-0.061
-0.022,-0.022,1.001,1.099,0.916,0.000
-0.022,-0.022,1.001,0.977,0.916,-0.244
-0.025,-0.021,1.001,1.160,0.916,-0.305
-0.026,-0.021,1.001,1.038,0.854,-0.244
-0.027,-0.023,1.000,1.038,0.854,-0.244
-0.028,-0.023,1.001,1.221,0.854,-0.183
-0.028,-0.023,1.001,1.038,0.793,-0.183
-0.027,-0.023,1.001,0.977,0.854,-0.122
-0.026,-0.022,1.001,1.038,0.854,-0.061
-0.027,-0.022,1.001,1.160,0.977,-0.061
-0.027,-0.019,1.001,1.160,0.916,-0.183
-0.027,-0.018,1.001,1.160,0.916,-0.122
-0.026,-0.017,1.001,0.854,0.732,-0.183
-0.027,-0.016,1.001,0.916,0.854,-0.183
-0.025,-0.019,1.000,0.977,0.793,-0.305
-0.025,-0.021,1.001,1.099,0.671,-0.244
-0.025,-0.023,1.001,1.160,0.793,-0.305
-0.026,-0.025,1.001,1.404,1.038,-0.061
-0.027,-0.024,1.000,1.099,0.793,-0.122
-0.028,-0.024,1.001,1.160,0.793,-0.122
-0.029,-0.022,1.001,1.160,0.732,-0.244
-0.029,-0.021,1.001,1.221,0.854,-0.244
-0.029,-0.021,1.001,1.160,0.854,-0.122
-0.027,-0.019,1.001,1.282,0.916,0.000
-0.027,-0.019,1.001,0.977,0.916,-0.183
-0.026,-0.019,1.001,1.038,0.977,-0.183
-0.024,-0.019,1.001,1.099,0.854,-0.122
-0.024,-0.019,1.001,1.038,0.793,-0.183
-0.024,-0.021,1.002,1.160,0.732,-0.061
-0.024,-0.022,1.001,1.343,0.977,-0.061
-0.023,-0.023,1.001,1.160,0.854,-0.183
-0.025,-0.023,1.001,1.099,0.732,-0.183
-0.026,-0.023,1.001,1.160,0.854,-0.244
-0.027,-0.023,1.001,1.343,0.916,-0.305
-0.028,-0.022,1.002,1.221,0.854,-0.305
-0.029,-0.021,1.001,1.038,0.916,-0.183
-0.030,-0.019,1.000,1.038,0.854,-0.244
-0.029,-0.018,1.001,0.977,0.793,-0.061
-0.028,-0.018,1.001,0.916,0.671,-0.122
-0.028,-0.019,1.000,1.038,0.793,-0.305
-0.026,-0.019,1.001,1.038,0.977,-0.305
-0.025,-0.021,1.001,1.038,0.977,-0.122
-0.025,-0.022,1.001,1.038,0.854,-0.244
-0.024,-0.023,1.001,1.038,0.916,-0.122
-0.023,-0.023,1.001,1.160,0.916,-0.244
-0.024,-0.023,1.001,1.221,0.854,-0.183
-0.024,-0.023,1.001,1.282,0.977,-0.061
-0.025,-0.023,1.000,1.221,0.977,-0.183
-0.026,-0.022,1.001,1.099,0.854,-0.305
-0.027,-0.019,1.001,1.038,0.732,-0.183
-0.028,-0.019,1.001,1.099,0.732,-0.061
-0.027,-0.020,1.001,1.221,0.793,-0.244
-0.029,-0.019,1.001,1.160,0.916,-0.122
-0.028,-0.021,1.001,1.160,0.916,-0.183
-0.027,-0.020,1.001,1.221,0.916,-0.366

0.086,-1.582,1.008,0.732,-0.488,46.570
0.009,-1.532,0.998,0.977,-0.916,67.993
0.002,-1.365,0.992,0.854,-1.282,92.346
-0.033,-1.135,0.988,1.465,-1.526,111.084
-0.149,-0.962,1.062,0.916,-1.221,121.765
-0.214,-0.798,1.026,1.953,-0.549,123.352
-0.329,-0.486,1.028,4.456,-0.183,113.708
-0.412,-0.214,0.993,4.639,-1.282,98.267
-0.370,-0.170,1.001,0.549,-0.854,82.703
-0.334,0.116,0.980,0.000,0.122,55.786
-0.301,0.574,1.015,-0.977,1.038,27.405
-0.228,0.832,1.008,1.099,1.465,7.629
-0.277,0.897,0.983,2.686,1.099,0.183
-0.293,0.856,0.978,-0.061,1.221,9.399
-0.118,1.078,0.960,-2.075,1.892,18.860
-0.165,1.170,1.053,-0.671,2.502,35.278
-0.025,1.306,1.006,1.770,1.465,44.250
0.029,0.992,1.000,2.014,0.366,35.400
0.025,1.199,1.012,1.892,0.122,12.756
-0.034,1.058,1.015,1.587,0.427,-3.113
-0.022,0.901,1.005,1.343,1.038,-12.329
-0.002,0.891,1.000,1.831,0.854,-25.391
-0.010,0.834,0.993,1.526,1.038,-38.513
-0.025,0.772,0.994,1.587,1.160,-43.823
-0.008,0.683,1.000,1.648,1.404,-39.734
-0.000,0.606,1.002,1.831,1.221,-29.602
-0.053,0.864,1.068,2.686,1.038,-21.729
-0.084,0.403,0.973,6.531,0.427,-14.404
-0.030,0.009,1.004,1.404,0.854,-2.441
-0.027,-0.019,1.001,1.160,0.793,-0.183
-0.026,-0.018,1.000,1.526,0.732,-0.122
-0.024,-0.020,1.000,1.526,0.916,0.061
-0.023,-0.022,1.000,1.343,0.977,0.061
-0.022,-0.025,1.000,1.099,0.854,-0.122
-0.025,-0.026,1.000,0.732,0.916,0.183
-0.029,-0.025,1.001,0.366,1.038,-0.061
-0.034,-0.023,1.001,0.427,1.038,-0.122
-0.037,-0.022,1.003,0.610,0.977,0.061
-0.038,-0.020,1.002,0.732,0.977,0.122
-0.038,-0.005,1.000,0.793,0.916,0.427
-0.040,0.029,0.997,0.488,0.793,1.221
-0.015,-0.086,1.007,-0.305,1.038,2.258
-0.018,-0.044,1.002,0.427,0.977,1.282
-0.017,-0.029,1.001,0.916,0.916,0.488
-0.017,-0.023,1.000,1.099,0.854,0.244
-0.017,-0.020,1.001,1.099,0.854,0.305
-0.019,-0.018,1.001,0.854,0.732,0.183
-0.019,-0.019,1.001,0.793,0.732,-0.061
-0.019,-0.022,1.001,0.671,0.793,0.061
-0.019,-0.025,1.001,0.916,0.732,0.061
-0.021,-0.029,1.000,0.916,0.916,-0.122
-0.023,-0.029,1.001,0.977,1.038,-0.061
-0.027,-0.028,1.001,0.977,0.793,-0.061
-0.030,-0.026,1.001,0.916,0.854,-0.366
-0.034,-0.024,1.001,0.916,0.732,-0.305
-0.034,-0.022,1.001,1.160,0.854,-0.122
-0.033,-0.022,1.001,1.160,0.793,-0.244
-0.029,-0.022,1.001,1.343,0.793,-0.305
-0.025,-0.023,1.001,1.343,0.671,-0.244
-0.023,-0.022,1.001,1.343,0.793,-0.122
-0.022,-0.021,1.001,1.221,0.732,-0.122
-0.022,-0.019,1.001,1.099,0.793,-0.122
-0.022,-0.021,1.001,1.160,0.916,-0.122
-0.023,-0.022,1.001,1.221,0.916,-0.183
-0.023,-0.023,1.001,1.160,0.854,-0.061
-0.024,-0.026,1.001,1.038,0.854,0.000
-0.024,-0.029,1.001,0.732,0.916,-0.061
-0.024,-0.029,1.001,0.854,0.854,-0.061
-0.027,-0.028,1.000,0.793,0.916,-0.244
-0.029,-0.025,1.001,0.793,0.854,-0.061
-0.030,-0.022,1.001,0.854,1.038,-0.122
-0.030,-0.019,1.001,1.038,1.038,-0.122
-0.031,-0.018,1.001,0.916,0.916,-0.122
-0.027,-0.019,1.001,0.916,0.854,-0.122
-0.025,-0.021,1.000,0.977,0.854,-0.061
-0.023,-0.023,1.001,1.099,1.038,0.122
-0.021,-0.024,1.001,1.038,1.038,-0.122
-0.020,-0.024,1.001,0.916,0.854,-0.183
-0.021,-0.024,1.001,0.854,0.793,-0.061
-0.023,-0.025,0.999,0.854,0.916,-0.183
-0.026,-0.024,1.001,0.732,0.916,-0.061
-0.027,-0.023,1.001,0.916,0.977,0.122
-0.027,-0.024,1.001,0.916,0.916,0.061
-0.026,-0.023,1.001,0.977,0.916,-0.061
-0.027,-0.023,1.001,0.916,0.854,-0.183
-0.028,-0.023,1.001,1.038,0.977,-0.183
-0.028,-0.021,1.001,1.099,0.977,-0.305
-0.029,-0.019,1.001,1.343,1.038,-0.122
-0.027,-0.019,1.001,1.160,0.916,0.000
-0.026,-0.020,1.001,0.977,0.793,-0.061
-0.024,-0.022,1.001,1.038,0.793,-0.183
-0.024,-0.025,1.000,1.160,0.854,-0.061
-0.022,-0.027,1.001,1.099,0.854,-0.122
-0.023,-0.026,1.001,1.221,1.099,-0.183
-0.024,-0.025,1.001,1.099,0.854,-0.244
-0.025,-0.024,1.001,0.916,0.916,-0.183
-0.027,-0.022,1.001,0.916,0.977,-0.183
-0.027,-0.020,1.001,0.854,0.977,-0.244
-0.027,-0.020,1.002,0.977,0.916,-0.122
-0.028,-0.020,1.001,1.099,1.038,-0.122
-0.027,-0.021,1.001,1.160,0.793,-0.122
-0.027,-0.021,1.001,1.282,0.854,-0.122
-0.026,-0.022,1.001,0.977,0.732,-0.183
-0.027,-0.021,1.001,1.221,0.671,0.000
-0.026,-0.022,1.002,1.221,0.732,-0.183
-0.025,-0.022,1.001,1.465,0.671,-0.122
-0.024,-0.023,1.001,1.343,0.854,-0.061
-0.023,-0.024,1.000,1.282,0.854,0.000
-0.023,-0.024,1.001,1.099,0.793,-0.061
-0.024,-0.025,1.001,0.916,0.854,-0.061
-0.024,-0.023,1.001,1.099,0.854,0.000
-0.025,-0.023,1.001,1.282,0.916,-0.061
-0.026,-0.021,1.001,1.099,0.854,-0.183
-0.028,-0.021,1.001,0.916,0.793,-0.183
-0.027,-0.021,1.001,0.916,0.793,-0.183
-0.028,-0.021,1.001,0.916,0.793,-0.183
-0.027,-0.021,1.001,1.099,0.854,-0.061
-0.027,-0.022,1.001,1.282,1.038,0.000
-0.026,-0.023,1.001,1.038,0.854,0.061

0.223,-1.713,1.026,0.916,0.732,27.954
0.151,-1.833,0.983,0.549,0.366,31.616
0.073,-1.639,1.013,-0.427,0.488,37.537
-0.054,-1.484,0.996,-1.404,-0.244,49.194
-0.124,-1.199,1.005,-1.099,-0.488,63.538
-0.160,-0.983,1.001,2.563,-1.099,74.402
-0.227,-1.016,1.008,3.174,-0.549,77.454
-0.305,-0.701,1.039,4.883,-0.366,72.693
-0.427,-0.047,0.987,6.042,-1.343,81.604
-0.434,0.072,1.001,0.000,-1.465,113.647
-0.273,0.193,1.003,-2.686,-0.671,133.057
-0.261,0.650,1.003,-1.526,-0.610,121.521
-0.254,1.058,1.015,-1.709,0.000,101.013
-0.316,1.125,1.005,-0.061,0.366,84.290
-0.111,1.591,0.990,-0.916,0.671,57.312
-0.180,1.460,1.002,-1.953,0.061,34.851
-0.084,1.227,1.014,0.854,-0.122,11.658
-0.118,1.347,0.998,1.465,0.427,-9.644
-0.101,1.310,1.000,0.854,1.099,-14.954
-0.082,1.121,1.002,1.282,1.160,-9.216
-0.097,0.939,0.976,1.526,0.793,-0.793
-0.002,0.927,1.005,1.038,0.977,-4.272
-0.028,0.961,1.000,1.770,0.854,-11.292
-0.051,0.965,1.002,1.587,0.916,-18.372
-0.075,0.843,1.001,1.465,1.038,-15.808
-0.118,0.689,0.989,1.709,1.038,-8.423
-0.033,0.027,1.005,1.221,0.977,-2.075
-0.028,-0.016,1.001,0.916,0.854,-0.244
-0.026,-0.019,1.001,1.282,0.793,-0.183
-0.024,-0.021,1.001,1.465,0.610,-0.305
-0.023,-0.025,1.000,1.343,0.610,0.000
-0.022,-0.028,1.001,1.099,0.793,-0.244
-0.024,-0.026,1.003,1.099,0.854,-0.183
-0.027,-0.025,1.001,0.977,0.854,-0.122
-0.029,-0.022,1.001,0.732,0.854,-0.122
-0.033,-0.020,1.001,0.610,0.916,-0.244
-0.033,-0.018,1.002,0.732,0.854,-0.183
-0.032,-0.018,1.001,0.977,0.916,-0.061
-0.029,-0.020,1.001,1.160,0.854,-0.061
-0.025,-0.021,1.001,1.282,0.793,-0.122
-0.022,-0.024,1.001,1.282,0.916,-0.183
-0.019,-0.025,1.001,1.099,0.732,-0.244
-0.018,-0.024,1.001,0.977,0.793,-0.305
-0.019,-0.023,1.001,0.977,0.854,-0.366
-0.020,-0.021,1.001,0.977,0.793,-0.427
-0.022,-0.021,1.001,0.854,0.916,-0.305
-0.022,-0.021,1.001,0.916,0.793,-0.183
-0.023,-0.023,1.001,0.916,0.916,-0.244
-0.023,-0.025,1.001,0.916,0.977,-0.183
-0.026,-0.025,1.000,0.854,0.793,-0.305
-0.028,-0.023,1.001,0.916,1.099,-0.244
-0.030,-0.021,1.001,0.916,0.854,-0.305
-0.031,-0.019,1.001,0.854,0.977,-0.061
-0.031,-0.017,1.001,0.916,0.793,-0.122
-0.031,-0.018,1.001,1.038,0.732,-0.183
-0.029,-0.020,1.000,0.977,0.732,-0.061
-0.025,-0.023,1.001,1.038,0.854,0.061
-0.021,-0.025,1.001,0.916,0.732,-0.122
-0.020,-0.027,1.001,0.854,0.732,-0.061
-0.019,-0.026,1.001,0.977,0.793,-0.305
-0.020,-0.023,1.001,0.916,0.916,-0.122
-0.023,-0.021,1.001,0.854,0.854,-0.305
-0.024,-0.019,1.001,0.977,0.977,-0.183
-0.026,-0.018,1.001,0.854,0.610,-0.244
-0.026,-0.019,1.001,0.916,0.671,-0.183
-0.027,-0.021,1.001,0.977,0.732,-0.061
-0.027,-0.023,1.001,0.977,0.671,-0.122
-0.028,-0.025,1.001,0.793,0.793,-0.244
-0.028,-0.024,1.001,0.916,0.916,-0.061
-0.028,-0.023,1.000,0.732,0.854,-0.122
-0.029,-0.021,1.001,0.732,0.793,-0.244
-0.029,-0.021,1.001,0.671,0.854,-0.122
-0.026,-0.021,1.001,0.671,0.854,-0.183
-0.024,-0.023,1.002,0.793,0.793,-0.061
-0.021,-0.022,1.001,0.854,0.793,-0.183
-0.020,-0.022,1.001,0.793,0.671,-0.061
-0.020,-0.022,1.001,0.977,0.793,-0.183
-0.021,-0.021,1.001,0.916,0.793,-0.244
-0.022,-0.019,1.001,0.854,0.671,0.000
-0.024,-0.019,1.001,0.916,0.732,-0.244
-0.026,-0.019,1.001,1.038,0.854,-0.183
-0.028,-0.021,1.001,1.038,0.671,-0.183
-0.028,-0.021,1.001,1.099,0.793,-0.244
-0.029,-0.023,1.001,1.038,0.732,-0.305
-0.029,-0.025,1.001,0.977,0.549,-0.183
-0.028,-0.025,1.002,0.977,0.732,-0.061
-0.029,-0.023,1.001,1.099,0.793,-0.061
-0.027,-0.021,1.001,1.221,0.793,-0.122
-0.027,-0.020,1.001,1.038,0.549,-0.061
-0.024,-0.020,1.001,1.099,0.732,-0.122
-0.022,-0.020,1.001,0.977,0.671,-0.183
-0.022,-0.020,1.002,0.916,0.854,-0.061
-0.022,-0.021,1.001,1.160,0.854,0.061
-0.021,-0.021,1.001,1.221,0.732,0.000
-0.022,-0.021,1.001,1.160,0.732,-0.183
-0.022,-0.022,1.001,1.038,0.610,-0.183
-0.025,-0.022,1.001,1.099,0.854,-0.061
-0.026,-0.021,1.001,1.221,0.793,0.061
-0.027,-0.022,1.001,1.404,0.916,-0.061
-0.027,-0.023,1.001,1.160,0.732,-0.122
-0.027,-0.023,1.001,0.977,0.793,-0.244
-0.027,-0.023,1.001,1.099,0.732,-0.244
-0.027,-0.022,1.001,0.977,0.732,-0.244
-0.027,-0.021,1.001,1.038,0.671,-0.244
-0.027,-0.021,1.001,1.160,0.916,-0.183
-0.026,-0.021,1.001,1.160,0.916,-0.061
-0.025,-0.021,1.001,0.854,0.854,-0.244
-0.024,-0.021,1.000,0.916,0.732,-0.183
-0.023,-0.022,1.001,0.977,0.671,-0.183
-0.023,-0.022,1.001,0.977,0.671,-0.305
-0.024,-0.022,1.001,0.916,0.732,-0.305
-0.024,-0.022,1.000,0.977,0.671,-0.244
-0.024,-0.021,1.001,1.099,0.793,-0.183
-0.025,-0.020,1.001,1.099,0.854,-0.244
-0.025,-0.022,1.001,1.099,0.549,-0.122
-0.025,-0.022,1.001,1.038,0.732,-0.305
-0.026,-0.022,1.000,1.099,0.793,-0.244
-0.025,-0.021,1.001,1.038,0.732,-0.244
-0.025,-0.021,1.001,0.977,0.732,-0.305

0.249,-2.059,1.004,4.578,0.977,-25.391
0.149,-2.305,1.004,3.967,0.427,3.113
0.023,-2.465,1.005,3.479,-0.427,36.011
-0.049,-2.617,0.999,2.319,-1.221,65.430
-0.273,-1.868,0.993,0.061,-1.099,78.491
-0.424,-0.866,0.981,-2.075,-0.916,92.468
-0.474,-0.397,1.007,-1.953,-1.404,122.437
-0.408,-0.681,1.001,-1.526,-0.732,133.301
-0.345,-0.070,1.044,0.427,0.488,110.046
-0.353,0.797,1.010,3.601,-0.366,77.759
-0.163,0.960,0.989,-0.305,-0.305,67.017
-0.103,0.873,0.989,-2.258,0.793,47.668
-0.154,1.330,1.016,-1.160,1.587,18.372
-0.226,1.635,1.007,1.587,1.709,5.981
-0.183,1.486,0.997,2.319,0.793,15.747
-0.144,1.438,0.991,2.197,0.671,15.930
-0.146,1.281,0.984,-0.366,1.099,16.113
-0.104,1.213,0.981,-0.732,1.282,14.709
-0.042,1.091,0.996,-1.160,1.953,16.724
-0.022,1.016,1.006,0.000,2.380,14.221
0.026,0.838,1.012,0.610,1.953,10.864
0.045,0.747,1.008,0.610,1.648,5.615
0.044,0.542,1.003,0.916,1.099,-2.136
-0.052,0.417,0.992,1.160,1.099,-8.972
0.031,0.219,1.012,0.854,1.221,-8.179
-0.030,0.370,0.998,1.892,0.854,-1.709
-0.006,0.295,1.001,1.526,0.549,8.728
0.000,0.210,1.002,1.465,0.244,10.559
-0.026,0.085,0.999,1.343,0.671,3.906
-0.038,0.048,1.001,1.343,0.732,-1.526
-0.061,-0.040,0.995,1.160,0.854,-0.061
-0.042,0.026,1.005,0.916,0.916,1.831
-0.041,0.136,0.998,1.099,0.671,2.563
-0.037,0.233,1.000,0.916,0.854,2.502
-0.034,0.717,0.995,1.465,0.854,-0.244
-0.025,0.045,1.002,1.587,0.732,-1.221
-0.026,-0.012,1.004,0.427,0.793,-0.488
-0.027,-0.017,1.001,0.671,0.549,-0.244
-0.027,-0.021,1.001,0.854,0.610,-0.244
-0.027,-0.023,1.001,1.038,0.732,-0.366
-0.026,-0.023,1.000,1.038,0.793,-0.305
-0.026,-0.023,1.001,1.160,0.916,-0.122
-0.026,-0.022,1.002,1.038,0.793,-0.061
-0.026,-0.021,1.002,1.038,0.610,-0.122
-0.025,-0.020,1.001,1.160,0.610,-0.183
-0.024,-0.021,1.001,1.099,1.038,0.000
-0.022,-0.022,1.000,1.160,0.854,0.000
-0.020,-0.022,1.000,1.343,0.793,-0.122
-0.020,-0.022,1.001,1.343,0.610,-0.061
-0.021,-0.021,1.001,1.099,0.793,-0.244
-0.023,-0.020,1.002,1.099,0.793,-0.122
-0.025,-0.017,1.001,1.160,0.854,-0.244
-0.026,-0.019,1.000,1.099,0.610,-0.061
-0.028,-0.019,1.001,1.221,0.732,-0.122
-0.027,-0.022,1.001,1.099,0.793,-0.122
-0.028,-0.024,1.001,1.099,0.916,-0.183
-0.027,-0.024,1.001,0.977,0.854,0.000
-0.026,-0.026,1.001,1.038,0.916,-0.122
-0.026,-0.024,1.001,1.160,0.916,-0.122
-0.026,-0.022,1.001,1.160,0.793,-0.061
-0.026,-0.020,1.001,0.977,0.732,-0.061
-0.025,-0.019,1.001,0.854,0.793,-0.183
-0.025,-0.019,1.001,0.793,0.977,-0.122
-0.024,-0.020,1.002,0.854,0.793,-0.061
-0.023,-0.022,1.001,0.977,0.854,-0.305
-0.022,-0.023,1.001,1.038,0.977,-0.244
-0.022,-0.022,1.001,0.916,0.977,-0.061
-0.022,-0.022,1.001,0.977,0.732,0.061
-0.023,-0.022,1.001,1.038,0.793,-0.122
-0.023,-0.022,1.002,0.977,0.793,-0.122
-0.023,-0.023,1.001,1.038,0.793,-0.183
-0.023,-0.023,1.001,1.282,0.854,-0.122
-0.023,-0.023,1.000,1.160,0.732,0.000
-0.023,-0.022,1.001,0.977,0.793,-0.061
-0.025,-0.022,1.001,0.854,0.793,-0.061
-0.026,-0.020,1.001,1.038,0.732,-0.183
-0.027,-0.020,1.001,0.977,0.977,-0.244
-0.029,-0.019,1.001,1.099,0.916,-0.183
-0.030,-0.020,1.001,1.099,0.854,-0.183
-0.028,-0.020,1.001,1.038,0.854,-0.122
-0.026,-0.022,1.001,1.038,0.732,-0.061
-0.025,-0.023,1.001,1.160,0.793,-0.183
-0.024,-0.023,1.001,1.160,0.732,-0.122
-0.022,-0.024,1.001,1.282,0.977,0.061
-0.023,-0.023,1.002,1.038,0.793,-0.061
-0.023,-0.022,1.001,1.099,0.671,-0.061
-0.024,-0.021,1.001,1.038,0.732,0.000
-0.024,-0.020,1.001,1.038,0.793,-0.122
-0.024,-0.020,1.002,1.099,0.671,-0.183
-0.025,-0.020,1.001,1.221,0.854,-0.061
-0.025,-0.021,1.001,1.221,0.854,0.061
-0.025,-0.021,1.001,1.160,0.854,-0.061
-0.025,-0.022,1.001,1.099,0.793,-0.122
-0.026,-0.023,1.001,1.099,0.916,-0.183
-0.026,-0.022,1.001,1.099,0.854,-0.183
-0.026,-0.022,1.001,1.221,0.916,0.000
-0.026,-0.022,1.002,1.038,0.732,-0.061
-0.025,-0.021,1.001,1.099,0.854,-0.122
-0.025,-0.022,1.001,1.099,0.977,-0.122
-0.024,-0.022,1.001,1.038,0.854,-0.122
-0.024,-0.022,1.001,0.977,0.793,-0.244
-0.024,-0.020,1.001,1.099,0.916,0.000
-0.024,-0.020,1.001,1.099,0.793,0.000
-0.024,-0.018,1.001,1.099,0.854,-0.122
-0.025,-0.019,1.001,1.221,0.793,-0.061
-0.024,-0.020,1.001,0.977,0.793,-0.061
-0.024,-0.021,1.001,0.793,0.793,0.000
-0.024,-0.023,1.001,1.038,0.916,-0.122
-0.024,-0.023,1.001,1.038,0.977,-0.061
-0.024,-0.024,1.001,0.977,0.793,-0.122
-0.025,-0.023,1.001,0.977,0.793,-0.122
-0.025,-0.022,1.001,0.854,0.854,-0.061
-0.025,-0.021,1.001,0.916,0.854,-0.061
-0.026,-0.021,1.000,1.099,0.854,-0.122
-0.027,-0.019,1.001,1.038,0.732,-0.183
-0.026,-0.019,1.001,1.038,0.916,-0.183
-0.027,-0.020,1.001,1.099,0.732,-0.122
-0.026,-0.021,1.001,1.099,0.732,-0.305
-0.025,-0.021,1.002,0.977,0.732,-0.244

0.074,0.085,0.934,61.951,13.489,2.197
-0.033,0.000,1.243,50.110,-8.179,4.028
-0.092,0.029,0.969,27.100,5.188,8.057
-0.080,-0.073,1.045,13.000,-0.061,7.629
-0.093,-0.070,1.002,13.062,1.343,2.502
-0.036,-0.031,1.019,14.954,0.671,0.061
-0.031,-0.022,1.009,11.719,0.305,0.061
-0.027,-0.022,1.004,8.606,0.366,-0.061
-0.026,-0.023,1.004,7.202,0.305,-0.122
-0.026,-0.030,1.009,5.188,0.244,-0.366
-0.027,-0.035,1.005,2.808,0.427,-0.427
-0.054,-0.140,1.000,1.831,0.732,-1.465
-0.045,-0.105,1.001,3.296,0.427,-6.897
0.016,0.141,1.001,4.883,0.366,-13.184
-0.010,0.033,1.003,2.686,0.488,-6.897
-0.023,-0.012,1.005,1.465,0.488,-0.732
-0.025,-0.020,1.001,2.136,0.549,-0.366
-0.026,-0.021,1.000,2.441,0.671,-0.244
-0.026,-0.020,1.001,2.014,0.610,-0.183
-0.027,-0.019,1.003,1.709,0.610,-0.122
-0.027,-0.019,1.002,1.343,0.610,-0.244
-0.028,-0.017,1.001,1.404,0.671,-0.244
-0.028,-0.018,1.001,1.282,0.793,0.000
-0.026,-0.019,1.002,1.160,0.732,-0.061
-0.027,-0.020,1.001,1.282,0.549,-0.061
-0.025,-0.022,1.000,1.221,0.488,-0.244
-0.024,-0.022,1.001,1.160,0.732,-0.244
-0.025,-0.021,1.002,1.221,0.671,-0.122
-0.025,-0.020,1.001,1.160,0.671,-0.122
-0.025,-0.019,1.001,1.038,0.854,-0.305
-0.025,-0.019,1.001,0.854,0.671,-0.305
-0.026,-0.019,1.001,0.732,0.916,-0.061
-0.026,-0.019,1.001,0.977,0.977,-0.244
-0.027,-0.021,1.001,1.099,0.793,-0.061
-0.027,-0.021,1.001,1.160,0.732,-0.122
-0.027,-0.022,1.004,1.221,0.916,0.000
-0.028,-0.022,1.001,1.038,0.854,-0.183
-0.028,-0.019,1.001,0.977,0.854,-0.366
-0.028,-0.019,1.001,0.916,0.854,-0.244
-0.028,-0.018,1.001,0.916,1.099,-0.122
-0.027,-0.019,1.002,0.977,1.038,-0.183
-0.026,-0.020,1.001,1.404,0.916,-0.061
-0.024,-0.021,1.002,1.038,0.793,0.000
-0.023,-0.021,1.001,0.916,1.038,-0.122
-0.022,-0.023,1.002,1.038,1.038,-0.305
-0.024,-0.019,1.002,0.854,0.916,-0.305
-0.024,-0.020,1.001,0.732,0.977,-0.244
-0.257,-0.747,1.008,1.099,1.038,-1.221
-0.090,-0.354,0.998,3.235,0.793,-24.170
-0.104,-0.218,1.002,3.113,1.160,-51.880
-0.123,-0.502,1.008,2.258,1.343,-53.406
-0.122,-0.769,1.020,2.747,1.770,-66.040
0.035,-0.763,1.005,1.587,1.892,-74.341
0.125,-0.820,1.002,2.258,1.587,-63.660
0.103,-1.087,1.011,2.014,0.916,-39.795
0.079,-1.444,1.007,1.648,0.488,-19.348
0.073,-1.700,0.995,1.648,0.305,-6.531
0.000,-1.693,1.005,0.549,0.183,9.155
-0.119,-1.460,0.998,0.244,-0.183,33.020
-0.178,-1.104,0.998,1.038,-0.671,62.988
-0.218,-0.801,1.000,0.916,-0.916,94.238
-0.189,-0.701,0.999,0.427,-0.671,121.277
-0.103,-0.912,1.023,0.854,-0.122,136.719
-0.005,-0.624,1.019,5.249,-0.610,128.845
-0.070,-0.222,1.001,4.150,-1.343,113.831
-0.011,-0.112,1.000,0.366,-0.916,105.652
0.058,0.018,0.985,-0.977,-0.305,85.754
0.009,0.312,1.007,-0.549,0.366,54.749
0.008,0.560,1.022,1.221,1.343,29.419
-0.081,0.493,1.004,2.136,0.977,16.418
0.051,0.580,0.981,1.404,1.038,-1.709
-0.289,0.719,0.939,-1.099,1.892,-20.752
-0.283,0.945,1.005,-1.160,2.869,-7.935
-0.264,1.227,1.034,0.549,3.113,15.564
-0.147,1.006,1.003,0.854,0.671,36.499
-0.081,0.915,1.017,1.709,-0.305,48.035
-0.127,0.748,0.990,3.235,-0.793,51.697
-0.066,0.818,0.995,1.404,-0.549,47.791
0.037,0.859,1.016,0.732,0.000,29.785
0.000,0.682,1.013,0.732,0.183,16.052
0.033,0.512,1.001,1.099,0.305,0.061
-0.017,0.686,0.999,0.977,1.099,-19.287
0.002,0.689,1.000,1.099,1.221,-25.696
0.028,0.460,1.004,0.916,1.160,-23.499
0.000,0.234,0.998,0.977,0.854,-20.630
-0.070,0.352,0.998,1.221,0.977,-26.794
-0.126,0.476,0.999,1.465,0.854,-27.222
-0.139,0.473,0.999,1.526,0.610,-17.517
-0.128,0.370,1.004,1.465,0.549,-5.432
-0.127,0.257,1.005,1.587,0.610,3.906
-0.130,0.211,1.000,1.709,0.610,7.690
-0.450,0.427,0.998,1.587,0.244,8.484
-0.131,0.023,1.000,2.747,0.122,5.554
-0.029,-0.017,1.007,1.282,0.732,0.366
-0.027,-0.014,1.001,0.916,0.854,-0.244
-0.031,-0.010,1.000,0.732,0.916,-0.183
-0.035,-0.007,1.001,0.916,0.977,-0.305
-0.035,-0.013,1.000,0.854,0.671,-0.244
-0.032,-0.020,1.002,0.854,0.916,-0.061
-0.031,-0.024,1.003,0.916,0.793,-0.061
-0.030,-0.027,1.000,0.793,1.038,0.061
-0.029,-0.028,1.000,0.977,1.221,-0.122
-0.031,-0.027,1.004,0.854,0.916,-0.122
-0.030,-0.025,1.005,0.854,0.854,-0.122
-0.029,-0.023,1.001,0.854,1.038,-0.061
-0.027,-0.020,0.998,0.977,0.854,0.061
-0.024,-0.020,1.001,0.977,0.916,-0.183
-0.022,-0.020,1.001,0.977,0.854,-0.183
-0.019,-0.020,1.004,0.977,0.854,-0.061
-0.018,-0.020,1.004,0.732,0.793,-0.122
-0.017,-0.020,1.000,0.793,0.732,-0.183
-0.018,-0.020,1.000,0.916,0.916,-0.183
-0.020,-0.021,1.001,0.854,0.793,-0.061
-0.020,-0.023,1.002,0.977,1.038,-0.061
-0.021,-0.024,1.004,1.099,0.977,-0.244
-0.023,-0.024,1.001,1.038,0.977,-0.305
-0.023,-0.027,1.001,1.099,0.916,-0.061
-0.026,-0.027,1.001,1.099,0.610,-0.305
-0.026,-0.025,1.001,1.038,0.854,-0.366

0.236,-1.707,1.002,0.549,0.549,2.991
0.301,-1.928,1.006,0.793,-0.061,15.747
0.242,-2.105,0.997,2.136,-0.366,23.193
0.012,-1.907,0.986,2.014,-0.366,27.161
-0.185,-1.665,0.991,0.671,-0.244,45.166
-0.351,-1.450,1.000,0.793,-0.549,72.754
-0.471,-1.053,0.991,0.549,-0.732,96.863
-0.371,-1.068,1.067,-0.366,0.122,111.450
-0.352,-0.302,1.013,4.700,-0.977,94.299
-0.377,0.276,0.990,1.038,-1.099,67.688
-0.371,-0.021,0.981,-1.465,0.732,42.358
-0.436,0.941,1.026,-0.671,1.770,5.188
-0.658,1.396,1.020,2.075,1.770,-1.343
-0.337,1.816,0.977,0.671,1.099,26.367
-0.351,1.459,0.966,-3.967,1.282,60.303
-0.082,1.445,1.038,-2.197,2.136,81.116
0.072,1.712,1.011,-0.183,1.892,77.515
0.190,1.449,1.001,0.854,0.122,58.350
0.183,1.593,1.008,1.953,-0.061,32.227
0.146,1.242,0.982,2.380,0.000,18.066
0.155,1.027,1.007,2.075,0.427,1.526
0.066,0.753,0.997,1.709,1.099,-16.663
0.008,0.653,1.000,2.075,0.977,-29.663
-0.033,0.583,0.998,1.465,1.221,-32.043
-0.034,0.536,1.001,1.221,1.160,-22.461
-0.004,0.439,1.000,1.038,0.977,-10.193
0.027,0.350,1.002,0.916,0.854,-2.747
0.016,0.342,0.996,0.732,0.732,-1.465
0.002,0.400,1.003,0.977,0.732,-1.709
-0.042,0.858,1.047,1.831,0.671,-1.648
-0.030,0.075,0.998,3.784,0.671,-1.465
-0.021,-0.013,1.004,0.427,0.977,-0.305
-0.021,-0.018,1.001,1.099,0.732,-0.122
-0.021,-0.017,1.000,1.404,0.671,0.061
-0.021,-0.018,1.000,1.465,0.671,0.061
-0.021,-0.021,1.001,1.282,0.793,-0.122
-0.024,-0.023,1.002,0.916,0.854,0.122
-0.027,-0.025,1.001,0.793,0.977,0.000
-0.031,-0.027,1.002,0.732,0.916,-0.122
-0.035,-0.027,1.001,0.610,1.038,-0.122
-0.037,-0.028,1.001,0.610,0.977,-0.122
-0.038,-0.028,1.001,0.549,1.038,0.000
-0.036,-0.026,1.003,0.916,0.916,0.000
-0.033,-0.025,1.002,0.916,0.793,0.061
-0.028,-0.024,1.001,0.916,0.793,0.061
-0.022,-0.024,1.001,0.977,0.793,0.000
-0.018,-0.023,1.001,0.977,0.916,0.061
-0.017,-0.022,1.001,0.916,0.793,0.122
-0.015,-0.021,1.001,0.854,0.977,0.061
-0.016,-0.020,1.001,0.854,0.916,-0.061
-0.018,-0.020,1.002,0.854,0.854,-0.122
-0.020,-0.022,1.001,0.854,0.854,-0.244
-0.021,-0.024,1.001,0.977,0.793,-0.183
-0.025,-0.026,1.001,0.977,0.732,-0.183
-0.026,-0.027,1.001,0.916,0.916,0.000
-0.028,-0.026,1.001,0.854,0.671,0.000
-0.028,-0.027,1.002,0.793,0.671,-0.122
-0.029,-0.024,1.001,0.854,0.854,-0.305
-0.030,-0.024,1.001,0.854,0.916,-0.244
-0.029,-0.021,1.001,0.732,0.732,-0.183
-0.028,-0.019,1.001,0.977,1.038,-0.183
-0.026,-0.019,1.001,0.977,0.793,-0.244
-0.025,-0.020,1.001,1.099,0.610,-0.305
-0.021,-0.022,1.000,1.221,0.610,-0.122
-0.021,-0.023,1.001,0.977,0.732,-0.183
-0.021,-0.026,1.002,0.977,0.732,-0.244
-0.022,-0.025,1.001,1.038,0.854,-0.061
-0.022,-0.025,1.001,0.854,0.793,0.000
-0.024,-0.024,1.001,0.854,0.854,-0.183
-0.027,-0.024,1.001,0.916,0.793,-0.183
-0.028,-0.024,1.001,0.916,0.793,-0.305
-0.029,-0.024,1.002,0.854,0.916,-0.183
-0.030,-0.023,1.001,1.160,1.038,-0.061
-0.029,-0.022,1.001,0.854,0.916,0.000
-0.028,-0.022,1.001,0.854,0.916,-0.122
-0.026,-0.022,1.001,0.854,0.793,-0.061
-0.026,-0.022,1.001,0.977,0.671,-0.183
-0.024,-0.022,1.002,0.854,0.793,-0.305
-0.022,-0.023,1.001,0.977,0.854,-0.183
-0.021,-0.022,1.001,1.038,0.793,-0.244
-0.020,-0.023,1.001,0.977,0.854,-0.122
-0.021,-0.024,1.001,0.916,0.854,-0.183
-0.022,-0.024,1.001,0.854,0.793,-0.183
-0.021,-0.023,1.001,1.099,0.854,-0.183
-0.024,-0.022,1.001,0.977,0.854,-0.122
-0.026,-0.022,1.001,1.099,0.671,-0.244
-0.027,-0.022,1.001,1.038,0.671,-0.183
-0.029,-0.021,1.001,1.038,0.671,-0.122
-0.029,-0.022,1.001,1.099,0.732,-0.183
-0.027,-0.021,1.001,0.977,0.732,0.000
-0.028,-0.022,1.001,1.038,0.793,-0.183
-0.027,-0.024,1.001,0.977,0.793,-0.183
-0.027,-0.025,1.001,0.854,0.732,-0.244
-0.025,-0.024,1.001,0.916,0.793,-0.244
-0.025,-0.023,1.001,0.977,0.793,0.000
-0.022,-0.023,1.001,0.854,0.671,-0.061
-0.022,-0.023,1.001,1.038,0.671,0.061
-0.023,-0.021,1.001,1.160,0.854,0.000
-0.023,-0.020,1.001,1.038,0.854,-0.122
-0.024,-0.021,1.001,0.977,0.671,-0.244
-0.025,-0.020,1.001,1.038,0.732,-0.122
-0.026,-0.021,1.000,1.038,0.977,-0.122
-0.026,-0.022,1.001,1.221,0.977,-0.244
-0.027,-0.023,1.001,1.160,0.977,-0.122
-0.027,-0.023,1.001,1.038,0.854,0.000
-0.027,-0.025,1.001,0.793,0.793,-0.183
-0.027,-0.025,1.001,0.916,0.793,-0.122
-0.025,-0.024,1.001,0.916,0.916,-0.061
-0.026,-0.024,1.001,0.854,0.977,-0.061
-0.025,-0.023,1.002,1.038,0.977,-0.122
-0.024,-0.022,1.001,0.854,0.854,-0.122
-0.024,-0.020,1.001,0.977,0.793,-0.183
-0.024,-0.020,1.001,0.977,0.854,0.000
-0.023,-0.019,1.002,1.038,0.854,-0.061
-0.023,-0.021,1.001,1.099,0.977,-0.061
-0.022,-0.021,1.001,1.221,0.977,-0.122
-0.023,-0.022,1.001,1.221,0.793,-0.122
-0.025,-0.023,1.001,1.038,0.732,-0.061
-0.025,-0.023,1.001,1.099,0.854,-0.061

0.266,-1.513,1.006,2.197,-0.183,24.963
0.331,-1.647,1.008,2.869,-0.977,58.533
0.284,-1.798,1.001,2.319,-1.465,85.938
0.137,-1.644,0.995,1.160,-1.892,105.835
0.017,-1.530,0.994,1.221,-1.709,123.108
-0.076,-1.164,1.004,1.526,-1.892,133.179
-0.210,-0.855,0.984,0.183,-1.404,137.756
-0.206,-0.756,1.053,-0.061,-0.366,131.836
-0.237,-0.107,1.010,4.456,-0.610,104.431
-0.220,0.463,0.989,1.709,-1.221,74.585
-0.132,0.353,1.000,-2.197,0.427,41.687
-0.169,0.041,0.993,-3.052,1.953,0.000
-0.263,0.703,1.008,0.061,2.930,-47.668
-0.522,1.190,1.005,2.625,2.502,-57.617
-0.399,1.593,0.979,1.709,1.953,-27.100
-0.375,1.318,0.986,-1.953,1.770,13.428
-0.239,1.023,0.995,-2.014,1.587,39.429
-0.176,1.101,1.018,0.183,2.075,43.640
-0.141,1.326,1.014,0.977,1.892,34.119
-0.072,1.413,0.996,0.549,0.916,28.625
-0.006,1.016,1.004,0.977,0.549,26.306
0.035,0.744,0.996,1.282,0.488,10.315
0.031,0.805,1.003,1.343,0.793,-10.986
-0.012,0.990,1.003,1.282,1.038,-26.062
0.024,0.754,0.997,0.732,0.977,-27.954
0.016,0.629,1.000,1.343,0.916,-28.137
-0.026,0.862,0.984,2.197,1.038,-21.606
-0.027,0.103,1.001,1.343,1.099,-9.888
-0.021,-0.005,1.006,0.549,1.099,-1.404
-0.025,-0.004,1.004,1.648,0.732,-0.610
-0.025,-0.013,1.002,1.709,0.732,-0.122
-0.026,-0.016,1.000,1.587,0.732,-0.061
-0.026,-0.015,1.000,1.587,0.854,-0.244
-0.026,-0.018,1.001,1.404,0.916,-0.061
-0.027,-0.021,1.000,1.343,0.916,0.000
-0.028,-0.024,1.001,1.160,0.854,-0.183
-0.030,-0.026,1.001,1.160,0.977,-0.061
-0.030,-0.028,1.002,1.038,0.977,0.000
-0.029,-0.028,1.002,1.282,1.038,0.061
-0.027,-0.027,1.001,1.099,0.977,-0.122
-0.027,-0.025,1.001,0.854,0.977,-0.183
-0.026,-0.024,1.001,0.854,0.977,0.000
-0.026,-0.023,1.001,0.793,1.038,0.000
-0.024,-0.021,1.003,0.732,0.916,0.000
-0.024,-0.019,1.002,0.732,1.099,0.000
-0.023,-0.018,1.000,0.671,1.099,0.122
-0.024,-0.018,1.001,0.732,0.977,-0.122
-0.022,-0.019,1.001,0.854,0.916,-0.244
-0.022,-0.020,1.001,0.793,0.977,-0.183
-0.021,-0.022,1.003,0.854,0.916,-0.061
-0.021,-0.022,1.001,1.282,0.793,-0.061
-0.020,-0.023,1.001,1.282,0.977,-0.061
-0.020,-0.024,1.001,1.282,0.916,-0.244
-0.021,-0.024,1.001,1.221,0.793,-0.183
-0.022,-0.024,1.001,1.404,0.793,-0.061
-0.024,-0.022,1.002,1.221,0.671,-0.061
-0.026,-0.020,1.001,1.343,0.854,0.000
-0.027,-0.020,1.001,1.404,0.916,-0.244
-0.029,-0.019,1.001,1.099,0.793,-0.122
-0.030,-0.019,1.002,1.099,0.977,-0.122
-0.029,-0.020,1.001,1.038,0.916,-0.183
-0.029,-0.021,1.001,1.038,0.671,-0.122
-0.029,-0.022,1.001,1.099,0.793,-0.061
-0.027,-0.023,1.001,1.038,0.916,-0.122
-0.025,-0.024,1.002,0.977,0.916,-0.244
-0.025,-0.025,1.001,0.977,0.854,0.000
-0.024,-0.023,1.001,0.977,0.732,-0.061
-0.024,-0.022,1.001,0.793,0.793,-0.183
-0.022,-0.021,1.001,1.038,0.854,-0.122
-0.022,-0.020,1.001,1.221,0.732,0.000
-0.023,-0.019,1.001,0.977,0.854,-0.122
-0.022,-0.020,1.001,0.854,0.916,-0.183
-0.023,-0.020,1.001,0.732,0.977,-0.122
-0.024,-0.021,1.001,0.854,0.854,0.061
-0.024,-0.022,1.001,1.160,0.977,-0.061
-0.026,-0.022,1.001,0.977,0.916,-0.244
-0.027,-0.021,1.001,0.671,0.854,0.000
-0.029,-0.022,1.001,0.793,0.793,-0.061
-0.029,-0.023,1.001,0.916,0.916,-0.122
-0.027,-0.023,1.001,0.732,0.854,-0.244
-0.027,-0.023,1.001,1.038,0.916,-0.122
-0.026,-0.022,1.001,1.038,0.916,-0.061
-0.025,-0.021,1.002,1.099,0.854,-0.122
-0.023,-0.020,1.001,1.099,0.732,-0.183
-0.023,-0.019,1.001,1.160,0.732,-0.061
-0.022,-0.018,1.001,1.282,0.793,0.000
-0.022,-0.018,1.001,0.977,0.916,0.000
-0.023,-0.019,1.001,1.160,0.916,-0.122
-0.023,-0.021,1.001,1.038,0.916,-0.244
-0.024,-0.022,1.001,0.916,0.854,-0.122
-0.024,-0.023,1.001,0.916,0.916,-0.244
-0.026,-0.024,1.002,1.038,0.854,-0.122
-0.026,-0.024,1.001,1.099,0.916,-0.183
-0.027,-0.023,1.001,1.221,0.977,-0.305
-0.026,-0.022,1.001,1.160,0.977,-0.305
-0.028,-0.021,1.001,1.099,0.854,-0.061
-0.027,-0.020,1.001,1.038,0.793,-0.122
-0.026,-0.019,1.001,0.977,0.793,0.122
-0.025,-0.019,1.001,1.160,0.732,0.000
-0.024,-0.020,1.001,1.160,0.916,-0.122
-0.024,-0.020,1.001,1.099,0.671,-0.244
-0.024,-0.022,1.001,0.977,0.793,-0.244
-0.024,-0.021,1.001,0.977,0.793,-0.061
-0.023,-0.022,1.001,1.099,0.854,-0.244
-0.023,-0.023,1.001,1.038,0.916,-0.122
-0.024,-0.022,1.001,1.038,0.854,-0.244
-0.024,-0.022,1.001,0.977,0.916,-0.427
-0.024,-0.023,1.001,0.916,0.793,-0.244
-0.024,-0.022,1.001,0.916,0.732,-0.122
-0.025,-0.021,1.001,1.099,0.793,-0.122
-0.025,-0.020,1.001,1.099,0.854,-0.305
-0.024,-0.019,1.001,1.099,0.977,-0.183
-0.027,-0.019,1.001,0.916,0.977,-0.183
-0.025,-0.019,1.001,1.160,0.977,-0.122
-0.026,-0.020,1.001,1.221,0.793,-0.183
-0.026,-0.021,1.001,1.038,0.854,0.000
-0.027,-0.023,1.001,0.977,0.793,0.000
-0.026,-0.023,1.001,1.221,1.038,-0.122
-0.025,-0.023,1.001,1.099,0.916,-0.061

0.312,-1.735,0.993,3.174,-0.061,38.208
0.299,-1.781,0.998,1.099,-0.671,58.777
0.224,-1.799,1.002,0.854,-1.038,67.810
0.052,-1.719,1.002,0.488,-1.282,67.932
-0.113,-1.367,0.983,0.854,-0.916,69.641
-0.352,-1.119,1.006,-0.610,-0.854,83.984
-0.446,-0.892,0.996,-0.427,-1.160,104.309
-0.456,-0.643,0.999,-1.038,-0.488,114.502
-0.340,-0.352,1.038,0.000,0.488,109.924
-0.315,0.199,1.003,4.578,-0.488,87.830
-0.298,0.700,1.003,0.610,-0.671,67.444
-0.295,0.355,0.977,-1.831,0.122,49.622
-0.283,0.643,1.003,-0.671,0.977,19.836
-0.380,1.152,0.999,0.977,1.892,-0.305
-0.266,1.011,1.004,2.075,1.587,16.663
-0.225,1.020,0.984,0.061,1.343,17.395
-0.201,0.967,0.969,-3.235,1.282,18.127
-0.156,0.865,0.994,-2.502,2.014,11.719
-0.140,0.901,1.032,-0.854,3.235,2.869
-0.097,1.136,1.005,0.427,2.563,-4.028
-0.081,0.736,1.002,0.427,1.343,-3.601
-0.077,0.505,1.002,1.099,0.732,-11.414
-0.070,0.828,0.993,2.441,0.854,-19.165
-0.153,0.708,0.964,1.648,0.610,-15.564
0.040,0.505,1.003,-0.122,1.038,-9.277
0.070,0.396,1.001,1.221,0.854,-10.742
0.061,0.380,1.005,1.282,1.099,-14.954
0.010,0.403,1.003,1.404,0.793,-15.015
-0.007,0.441,0.999,0.854,0.610,-6.348
-0.005,0.311,1.001,0.854,0.671,7.935
0.012,0.186,1.001,0.793,0.671,16.174
0.023,0.247,1.001,0.977,0.732,16.846
0.002,0.241,1.001,1.282,0.977,15.381
-0.000,0.188,1.003,1.099,0.793,13.611
0.024,0.114,1.001,1.038,0.732,9.949
0.020,0.168,1.001,1.099,0.793,1.953
0.002,0.291,1.002,1.038,1.038,-6.775
-0.005,0.411,1.004,1.038,0.977,-10.681
0.016,0.571,0.990,1.404,1.038,-8.911
-0.023,0.021,1.003,0.244,1.099,-3.052
-0.026,-0.016,1.001,0.366,1.038,-0.488
-0.026,-0.021,1.001,1.160,0.732,-0.244
-0.025,-0.021,1.001,1.831,0.671,-0.122
-0.025,-0.023,1.001,1.770,0.549,-0.061
-0.023,-0.023,1.000,1.587,0.793,0.000
-0.021,-0.024,1.000,1.160,0.793,0.000
-0.022,-0.024,1.001,1.099,0.793,0.000
-0.022,-0.025,1.001,0.916,0.854,-0.061
-0.025,-0.024,1.000,0.732,0.916,-0.244
-0.026,-0.022,1.001,0.488,1.038,0.000
-0.028,-0.021,1.000,0.610,1.160,-0.183
-0.027,-0.020,1.001,0.549,1.038,-0.183
-0.027,-0.021,1.001,0.610,0.854,-0.122
-0.026,-0.022,1.001,0.793,0.916,-0.183
-0.022,-0.023,1.001,0.916,0.916,0.000
-0.022,-0.022,1.001,1.099,0.793,-0.183
-0.022,-0.022,1.001,1.160,0.854,-0.183
-0.021,-0.022,1.001,1.099,0.793,0.000
-0.023,-0.022,1.001,1.282,0.793,-0.061
-0.024,-0.020,1.001,1.221,0.671,0.000
-0.026,-0.021,1.001,0.977,0.610,0.061
-0.025,-0.022,1.001,1.099,0.610,-0.122
-0.025,-0.022,1.000,1.160,0.671,-0.183
-0.026,-0.022,1.001,1.221,0.793,-0.061
-0.028,-0.023,1.001,0.793,0.793,-0.122
-0.027,-0.022,1.001,0.854,0.793,-0.122
-0.027,-0.022,1.001,0.793,0.732,0.000
-0.026,-0.022,1.001,0.793,0.916,-0.122
-0.025,-0.023,1.000,0.854,0.916,-0.305
-0.024,-0.023,1.001,0.977,0.793,-0.061
-0.022,-0.022,1.001,0.854,0.854,-0.061
-0.021,-0.022,1.001,0.916,0.793,0.000
-0.021,-0.021,1.001,0.916,0.854,-0.061
-0.021,-0.020,1.001,0.977,0.793,-0.183
-0.023,-0.020,1.000,1.160,0.854,-0.122
-0.023,-0.020,1.001,1.099,0.854,-0.122
-0.024,-0.020,1.001,1.160,0.671,0.000
-0.026,-0.021,1.001,1.099,0.793,-0.122
-0.026,-0.021,1.000,0.916,0.793,-0.183
-0.026,-0.023,1.001,0.916,0.732,-0.183
-0.026,-0.023,1.001,1.160,0.549,-0.305
-0.027,-0.024,1.001,1.038,0.671,-0.183
-0.026,-0.023,1.000,0.977,0.793,-0.122
-0.027,-0.023,1.001,0.916,0.732,-0.122
-0.027,-0.023,1.001,0.854,0.671,-0.061
-0.026,-0.021,1.001,0.916,0.793,0.061
-0.024,-0.020,1.000,1.038,0.854,-0.061
-0.025,-0.019,1.001,1.160,0.977,-0.122
-0.023,-0.020,1.000,1.099,0.793,-0.183
-0.022,-0.020,1.001,1.099,0.916,-0.122
-0.021,-0.021,1.001,1.099,0.916,-0.122
-0.022,-0.021,1.001,1.160,0.854,-0.122
-0.023,-0.022,1.000,1.038,0.854,-0.305
-0.024,-0.021,1.002,1.160,0.793,-0.122
-0.024,-0.022,1.001,0.854,0.610,-0.183
-0.026,-0.022,1.001,0.916,0.732,-0.122
-0.026,-0.023,1.001,0.916,0.916,-0.061
-0.026,-0.023,1.000,0.916,0.916,-0.122
-0.027,-0.024,1.001,1.038,0.977,-0.244
-0.027,-0.022,1.001,0.916,0.916,-0.183
-0.027,-0.021,1.001,0.916,0.793,-0.061
-0.026,-0.020,1.001,1.099,0.854,-0.061
-0.026,-0.020,1.001,1.160,0.793,-0.183
-0.024,-0.019,1.001,0.977,0.916,-0.183
-0.024,-0.020,1.001,0.977,0.793,-0.122
-0.024,-0.020,1.001,1.038,0.854,0.000
-0.023,-0.021,1.001,0.977,0.793,0.061
-0.022,-0.021,1.000,1.099,0.793,-0.122
-0.023,-0.022,1.001,1.099,0.854,-0.244
-0.023,-0.023,1.001,0.916,0.916,-0.122
-0.025,-0.024,1.000,1.038,0.916,-0.061
-0.026,-0.023,1.001,1.160,0.916,0.000
-0.026,-0.022,1.001,1.099,0.916,-0.122
-0.026,-0.022,1.001,1.038,0.977,-0.122
-0.026,-0.022,1.001,1.038,0.977,-0.122
-0.025,-0.021,1.002,0.916,0.854,-0.061
-0.025,-0.023,1.001,1.099,0.793,0.061
-0.023,-0.021,1.001,1.160,1.038,0.122
-0.023,-0.021,1.001,1.038,0.977,-0.122

